when,stimType,stimPos,resp,rt,initWheelPos,finalWheelPos,tone,dist,cue,cuePos,trialNum,subj,phase,bias,sex,hand,age,acc,err
7262,Right,4,None,1001,-42,-44,Sound_1,None,y,4,1,ACC_2-1,practice,acc,Female,Right,24,0,1
14824,Right,7,None,1001,-6,2,Sound_1,None,n,NA,1,ACC_2-1,practice,acc,Female,Right,24,0,1
22254,Right,4,None,1001,-40,-56,None,None,n,NA,1,ACC_2-1,practice,acc,Female,Right,24,0,1
32645,Left,6,None,1001,42,44,None,Congruent,n,NA,1,ACC_2-1,practice,acc,Female,Right,24,0,1
41540,Right,2,None,1001,-47,-50,None,None,y,2,1,ACC_2-1,practice,acc,Female,Right,24,0,1
50967,Right,1,None,1001,32,32,Sound_1,Congruent,n,NA,1,ACC_2-1,practice,acc,Female,Right,24,0,1
60428,Right,5,None,1001,-40,-42,None,None,y,5,1,ACC_2-1,practice,acc,Female,Right,24,0,1
72920,Left,2,None,1001,13,14,None,None,y,2,1,ACC_2-1,practice,acc,Female,Right,24,0,1
80615,Right,1,None,1001,-45,-47,Sound_1,None,y,1,1,ACC_2-1,practice,acc,Female,Right,24,0,1
1066,Left,2,None,1001,1,0,None,None,y,2,1,ACC_1-1,practice,acc,Female,Right,21,0,1
23251,Left,7,None,1001,-33,-31,None,Congruent,n,NA,1,ACC_1-1,practice,acc,Female,Right,21,0,1
39941,Right,8,Right,930,-2,4,Sound_1,None,y,8,1,ACC_1-1,practice,acc,Female,Right,21,1,0
53432,Right,1,Right,899,31,29,None,Incongruent,n,NA,1,ACC_1-1,practice,acc,Female,Right,21,1,0
61427,Right,7,Right,766,3,11,Sound_1,None,n,NA,1,ACC_1-1,practice,acc,Female,Right,21,1,0
69888,Right,4,Right,766,-37,-32,None,None,n,NA,1,ACC_1-1,practice,acc,Female,Right,21,1,0
80315,Right,1,Right,567,32,22,Sound_1,Congruent,n,NA,1,ACC_1-1,practice,acc,Female,Right,21,1,0
90842,Left,4,Left,732,2,4,None,None,n,NA,1,ACC_1-1,practice,acc,Female,Right,21,1,0
98071,Left,3,Left,865,-40,-36,Sound_1,Congruent,n,NA,1,ACC_1-1,practice,acc,Female,Right,21,1,0
106799,Left,3,Left,632,-1,0,Sound_1,None,n,NA,1,ACC_1-1,practice,acc,Female,Right,21,1,0
114427,Left,8,Left,999,-45,-47,None,Congruent,y,8,1,ACC_1-1,practice,acc,Female,Right,21,1,0
126853,Right,5,Right,531,34,31,Sound_1,Congruent,y,5,1,ACC_1-1,practice,acc,Female,Right,21,1,0
137246,Right,5,Right,632,-43,-40,None,None,y,5,1,ACC_1-1,practice,acc,Female,Right,21,1,0
144974,Left,4,Left,699,7,2,Sound_1,Congruent,n,NA,1,ACC_1-1,practice,acc,Female,Right,21,1,0
152670,Left,1,Left,765,44,43,Sound_1,None,n,NA,1,ACC_1-1,practice,acc,Female,Right,21,1,0
162763,Right,2,Right,499,-35,-25,None,None,y,2,1,ACC_1-1,practice,acc,Female,Right,21,1,0
172490,Right,7,Right,599,34,32,Sound_1,Congruent,n,NA,1,ACC_1-1,practice,acc,Female,Right,21,1,0
182318,Right,4,Right,531,-49,-16,Sound_1,None,y,4,1,ACC_1-1,practice,acc,Female,Right,21,1,0
190712,Right,6,Right,532,4,4,None,None,y,6,1,ACC_1-1,practice,acc,Female,Right,21,1,0
198274,Right,1,Right,498,-42,-36,Sound_1,None,y,1,1,ACC_1-1,practice,acc,Female,Right,21,1,0
209234,Left,6,Left,999,36,18,None,Congruent,n,NA,1,ACC_1-1,practice,acc,Female,Right,21,1,0
216662,Right,3,Right,631,-5,0,Sound_1,Incongruent,y,3,1,ACC_1-1,practice,acc,Female,Right,21,1,0
224291,Left,6,Left,699,-33,-38,None,Incongruent,y,6,1,ACC_1-1,practice,acc,Female,Right,21,1,0
234151,Right,6,Right,565,44,40,Sound_1,None,y,6,1,ACC_1-1,practice,acc,Female,Right,21,1,0
4896,Right,1,Right,566,-40,-42,None,Congruent,y,1,1,ACC_1-1,experiment,acc,Female,Right,21,1,0
12458,Left,5,Left,899,7,2,Sound_1,Incongruent,n,NA,1,ACC_1-1,experiment,acc,Female,Right,21,1,0
20587,Left,8,None,1001,-48,-36,None,Incongruent,n,NA,1,ACC_1-1,experiment,acc,Female,Right,21,0,1
29181,Right,2,Right,666,1,2,Sound_1,Incongruent,n,NA,1,ACC_1-1,experiment,acc,Female,Right,21,1,0
39241,Right,8,Right,532,34,32,Sound_1,Congruent,y,8,1,ACC_1-1,experiment,acc,Female,Right,21,1,0
47003,Right,7,Right,732,-1,2,Sound_1,None,n,NA,1,ACC_1-1,experiment,acc,Female,Right,21,1,0
54732,Right,4,Right,965,35,31,None,Incongruent,n,NA,1,ACC_1-1,experiment,acc,Female,Right,21,1,0
62194,Right,2,Right,832,0,0,None,None,n,NA,1,ACC_1-1,experiment,acc,Female,Right,21,1,0
72054,Left,7,Left,565,42,41,Sound_1,None,n,NA,1,ACC_1-1,experiment,acc,Female,Right,21,1,0
81981,Right,5,None,1001,-41,-36,None,Incongruent,n,NA,1,ACC_1-1,experiment,acc,Female,Right,21,0,1
89676,Left,7,Left,799,2,0,None,None,n,NA,1,ACC_1-1,experiment,acc,Female,Right,21,1,0
97671,Left,5,Left,933,-40,-33,None,Incongruent,n,NA,1,ACC_1-1,experiment,acc,Female,Right,21,1,0
105200,Left,7,Left,598,-1,5,Sound_1,Congruent,n,NA,1,ACC_1-1,experiment,acc,Female,Right,21,1,0
112795,Left,6,Left,498,41,37,Sound_1,Congruent,y,6,1,ACC_1-1,experiment,acc,Female,Right,21,1,0
120490,Left,1,Left,665,-4,-1,Sound_1,None,y,1,1,ACC_1-1,experiment,acc,Female,Right,21,1,0
128185,Left,5,Left,732,36,37,Sound_1,Congruent,n,NA,1,ACC_1-1,experiment,acc,Female,Right,21,1,0
136180,Left,7,Left,631,0,0,Sound_1,None,y,7,1,ACC_1-1,experiment,acc,Female,Right,21,1,0
145408,Right,2,Right,465,-55,-48,None,None,y,2,1,ACC_1-1,experiment,acc,Female,Right,21,1,0
153536,Right,2,Right,565,4,2,Sound_1,None,y,2,1,ACC_1-1,experiment,acc,Female,Right,21,1,0
162331,Left,1,Left,832,-59,-58,Sound_1,Incongruent,n,NA,1,ACC_1-1,experiment,acc,Female,Right,21,1,0
170725,Left,2,Left,866,5,1,Sound_1,Incongruent,n,NA,1,ACC_1-1,experiment,acc,Female,Right,21,1,0
178587,Left,3,Left,731,53,46,Sound_1,Congruent,y,3,1,ACC_1-1,experiment,acc,Female,Right,21,1,0
204371,Right,2,Right,832,-46,-47,None,Incongruent,n,NA,1,ACC_1-1,experiment,acc,Female,Right,21,1,0
211866,Right,3,Right,598,7,3,None,None,y,3,1,ACC_1-1,experiment,acc,Female,Right,21,1,0
219461,Left,6,Left,965,-46,-45,None,None,n,NA,1,ACC_1-1,experiment,acc,Female,Right,21,1,0
231820,Left,7,Left,732,36,33,None,Congruent,y,7,1,ACC_1-1,experiment,acc,Female,Right,21,1,0
241514,Right,3,Right,632,-49,-46,Sound_1,None,n,NA,1,ACC_1-1,experiment,acc,Female,Right,21,1,0
251141,Left,5,Left,632,53,50,None,Incongruent,y,5,1,ACC_1-1,experiment,acc,Female,Right,21,1,0
260768,Right,5,Right,599,-36,-30,None,None,y,5,1,ACC_1-1,experiment,acc,Female,Right,21,1,0
270396,Left,4,Left,598,49,44,None,Congruent,y,4,1,ACC_1-1,experiment,acc,Female,Right,21,1,0
279989,Left,1,None,1001,-46,-39,None,Congruent,n,NA,1,ACC_1-1,experiment,acc,Female,Right,21,0,1
288850,Right,5,Right,565,40,34,Sound_1,Congruent,y,5,1,ACC_1-1,experiment,acc,Female,Right,21,1,0
298378,Right,5,Right,831,-43,-37,Sound_1,Incongruent,y,5,1,ACC_1-1,experiment,acc,Female,Right,21,1,0
306206,Left,8,Left,632,5,2,None,None,y,8,1,ACC_1-1,experiment,acc,Female,Right,21,1,0
313835,Left,1,Left,765,38,29,None,Congruent,y,1,1,ACC_1-1,experiment,acc,Female,Right,21,1,0
328894,Left,8,Left,696,-47,-43,Sound_1,Incongruent,y,8,1,ACC_1-1,experiment,acc,Female,Right,21,1,0
336554,Left,4,Left,833,3,4,None,None,n,NA,1,ACC_1-1,experiment,acc,Female,Right,21,1,0
343883,Left,4,Left,998,-46,-40,Sound_1,Incongruent,n,NA,1,ACC_1-1,experiment,acc,Female,Right,21,1,0
354411,Right,6,Right,731,35,38,None,None,n,NA,1,ACC_1-1,experiment,acc,Female,Right,21,1,0
361606,Right,8,Right,799,-4,-1,None,None,n,NA,1,ACC_1-1,experiment,acc,Female,Right,21,1,0
368901,Right,7,Right,598,37,33,Sound_1,Congruent,n,NA,1,ACC_1-1,experiment,acc,Female,Right,21,1,0
379827,Left,1,Left,664,-46,-45,Sound_1,Congruent,y,1,1,ACC_1-1,experiment,acc,Female,Right,21,1,0
389621,Right,4,Right,599,36,33,Sound_1,Congruent,n,NA,1,ACC_1-1,experiment,acc,Female,Right,21,1,0
399214,Left,8,Left,699,-52,-40,Sound_1,None,n,NA,1,ACC_1-1,experiment,acc,Female,Right,21,1,0
412240,Left,3,Left,765,49,48,Sound_1,Incongruent,n,NA,1,ACC_1-1,experiment,acc,Female,Right,21,1,0
425332,Left,3,Left,731,-38,-38,Sound_1,Congruent,n,NA,1,ACC_1-1,experiment,acc,Female,Right,21,1,0
435059,Left,3,Left,900,53,47,None,Congruent,n,NA,1,ACC_1-1,experiment,acc,Female,Right,21,1,0
444419,Right,6,Right,900,-50,-39,None,Congruent,n,NA,1,ACC_1-1,experiment,acc,Female,Right,21,1,0
451815,Right,5,Right,797,6,4,Sound_1,Incongruent,n,NA,1,ACC_1-1,experiment,acc,Female,Right,21,1,0
463307,Right,3,None,1001,56,55,None,Congruent,y,3,1,ACC_1-1,experiment,acc,Female,Right,21,0,1
472636,Right,3,Right,564,-41,-36,Sound_1,Congruent,y,3,1,ACC_1-1,experiment,acc,Female,Right,21,1,0
480163,Right,5,Right,598,7,2,Sound_1,None,y,5,1,ACC_1-1,experiment,acc,Female,Right,21,1,0
487725,Left,5,Left,799,42,39,None,None,n,NA,1,ACC_1-1,experiment,acc,Female,Right,21,1,0
496986,Left,4,Left,964,-51,-44,Sound_1,Congruent,y,4,1,ACC_1-1,experiment,acc,Female,Right,21,1,0
506947,Right,5,Right,700,54,49,None,Incongruent,y,5,1,ACC_1-1,experiment,acc,Female,Right,21,1,0
514642,Left,2,Left,632,-10,-9,None,None,y,2,1,ACC_1-1,experiment,acc,Female,Right,21,1,0
524770,Left,2,Left,864,43,42,Sound_1,Congruent,n,NA,1,ACC_1-1,experiment,acc,Female,Right,21,1,0
532631,Right,3,Right,598,-5,0,Sound_1,Congruent,n,NA,1,ACC_1-1,experiment,acc,Female,Right,21,1,0
540226,Right,6,Right,767,-47,-43,None,Incongruent,y,6,1,ACC_1-1,experiment,acc,Female,Right,21,1,0
547988,Left,6,Left,665,3,0,None,Congruent,y,6,1,ACC_1-1,experiment,acc,Female,Right,21,1,0
555650,Left,6,Left,498,-51,-49,Sound_1,None,y,6,1,ACC_1-1,experiment,acc,Female,Right,21,1,0
565177,Left,4,Left,966,50,47,None,Incongruent,n,NA,1,ACC_1-1,experiment,acc,Female,Right,21,1,0
574738,Right,6,Right,765,-50,-52,Sound_1,None,n,NA,1,ACC_1-1,experiment,acc,Female,Right,21,1,0
584565,Right,2,Right,431,44,40,Sound_1,Congruent,y,2,1,ACC_1-1,experiment,acc,Female,Right,21,1,0
592027,Left,6,Left,733,0,-6,Sound_1,None,n,NA,1,ACC_1-1,experiment,acc,Female,Right,21,1,0
599722,Right,1,Right,732,-47,-44,Sound_1,Incongruent,n,NA,1,ACC_1-1,experiment,acc,Female,Right,21,1,0
607584,Left,3,Left,866,-2,-8,None,Incongruent,n,NA,1,ACC_1-1,experiment,acc,Female,Right,21,1,0
614980,Right,1,Right,700,37,33,None,Incongruent,n,NA,1,ACC_1-1,experiment,acc,Female,Right,21,1,0
626340,Left,5,Left,732,-47,-37,None,Congruent,y,5,1,ACC_1-1,experiment,acc,Female,Right,21,1,0
634235,Left,6,Left,867,-1,-6,None,Incongruent,n,NA,1,ACC_1-1,experiment,acc,Female,Right,21,1,0
641599,Right,4,Right,897,44,42,None,None,y,4,1,ACC_1-1,experiment,acc,Female,Right,21,1,0
652692,Left,5,Left,534,-2,-5,None,None,y,5,1,ACC_1-1,experiment,acc,Female,Right,21,1,0
660220,Right,8,Right,632,-50,-45,Sound_1,Congruent,n,NA,1,ACC_1-1,experiment,acc,Female,Right,21,1,0
667849,Right,6,Right,932,-1,1,None,Incongruent,n,NA,1,ACC_1-1,experiment,acc,Female,Right,21,1,0
676310,Left,2,Left,664,-46,-41,Sound_1,Incongruent,y,2,1,ACC_1-1,experiment,acc,Female,Right,21,1,0
686404,Right,5,Right,565,45,42,Sound_1,None,n,NA,1,ACC_1-1,experiment,acc,Female,Right,21,1,0
695998,Right,3,Right,565,-39,-37,None,Incongruent,y,3,1,ACC_1-1,experiment,acc,Female,Right,21,1,0
705825,Left,2,Left,865,50,43,None,None,n,NA,1,ACC_1-1,experiment,acc,Female,Right,21,1,0
715186,Right,6,Right,531,-45,-42,Sound_1,Congruent,y,6,1,ACC_1-1,experiment,acc,Female,Right,21,1,0
724714,Right,7,Right,832,49,46,None,Incongruent,n,NA,1,ACC_1-1,experiment,acc,Female,Right,21,1,0
734042,Right,8,Right,631,-48,-47,None,None,y,8,1,ACC_1-1,experiment,acc,Female,Right,21,1,0
741637,Right,2,Right,499,0,3,None,Congruent,y,2,1,ACC_1-1,experiment,acc,Female,Right,21,1,0
749299,Left,4,Left,600,47,46,Sound_1,Incongruent,y,4,1,ACC_1-1,experiment,acc,Female,Right,21,1,0
756928,Right,3,Right,833,-5,-6,None,Incongruent,n,NA,1,ACC_1-1,experiment,acc,Female,Right,21,1,0
764224,Left,4,Left,798,-48,-36,None,Congruent,n,NA,1,ACC_1-1,experiment,acc,Female,Right,21,1,0
771719,Right,7,Right,765,-4,1,None,Congruent,n,NA,1,ACC_1-1,experiment,acc,Female,Right,21,1,0
778981,Right,7,Right,566,44,40,None,None,y,7,1,ACC_1-1,experiment,acc,Female,Right,21,1,0
788509,Left,2,None,1001,-42,-35,None,Incongruent,n,NA,1,ACC_1-1,experiment,acc,Female,Right,21,0,1
797636,Left,8,Left,804,50,49,None,Incongruent,y,8,1,ACC_1-1,experiment,acc,Female,Right,21,1,0
807430,Right,4,Right,732,-45,-40,None,None,n,NA,1,ACC_1-1,experiment,acc,Female,Right,21,1,0
818890,Left,2,Left,798,34,29,Sound_1,None,y,2,1,ACC_1-1,experiment,acc,Female,Right,21,1,0
826752,Left,8,Left,799,-3,-9,None,Congruent,n,NA,1,ACC_1-1,experiment,acc,Female,Right,21,1,0
834048,Right,7,Right,966,-58,-43,None,None,n,NA,1,ACC_1-1,experiment,acc,Female,Right,21,1,0
843544,Left,1,Left,631,3,-1,Sound_1,Congruent,n,NA,1,ACC_1-1,experiment,acc,Female,Right,21,1,0
851505,Left,4,Left,931,-56,-53,None,None,y,4,1,ACC_1-1,experiment,acc,Female,Right,21,1,0
859467,Left,3,Left,731,2,-5,Sound_1,None,n,NA,1,ACC_1-1,experiment,acc,Female,Right,21,1,0
867195,Right,1,Right,564,-54,-52,Sound_1,None,y,1,1,ACC_1-1,experiment,acc,Female,Right,21,1,0
874857,Right,6,Right,697,-6,-1,Sound_1,Incongruent,y,6,1,ACC_1-1,experiment,acc,Female,Right,21,1,0
882552,Right,4,Right,565,-50,-48,None,Congruent,y,4,1,ACC_1-1,experiment,acc,Female,Right,21,1,0
892112,Right,6,Right,599,55,46,None,Congruent,y,6,1,ACC_1-1,experiment,acc,Female,Right,21,1,0
899675,Left,8,Left,699,-5,-6,Sound_1,Incongruent,n,NA,1,ACC_1-1,experiment,acc,Female,Right,21,1,0
907369,Right,4,Right,565,-43,-43,Sound_1,None,y,4,1,ACC_1-1,experiment,acc,Female,Right,21,1,0
916931,Right,2,Right,867,45,41,None,Congruent,n,NA,1,ACC_1-1,experiment,acc,Female,Right,21,1,0
925292,Left,5,Left,866,-3,0,None,Congruent,n,NA,1,ACC_1-1,experiment,acc,Female,Right,21,1,0
932654,Right,1,Right,732,47,47,Sound_1,Congruent,n,NA,1,ACC_1-1,experiment,acc,Female,Right,21,1,0
942381,Left,3,Left,930,-46,-39,Sound_1,None,y,3,1,ACC_1-1,experiment,acc,Female,Right,21,1,0
950276,Left,3,Left,698,0,-2,Sound_1,Incongruent,y,3,1,ACC_1-1,experiment,acc,Female,Right,21,1,0
957971,Right,1,Right,565,46,45,Sound_1,Incongruent,y,1,1,ACC_1-1,experiment,acc,Female,Right,21,1,0
965534,Right,1,Right,531,-2,-2,Sound_1,Congruent,y,1,1,ACC_1-1,experiment,acc,Female,Right,21,1,0
973063,Right,3,Right,665,-50,-49,None,Congruent,n,NA,1,ACC_1-1,experiment,acc,Female,Right,21,1,0
982224,Right,8,Right,698,51,51,Sound_1,None,n,NA,1,ACC_1-1,experiment,acc,Female,Right,21,1,0
991918,Left,2,Left,899,-47,-40,None,Congruent,y,2,1,ACC_1-1,experiment,acc,Female,Right,21,1,0
1002944,Right,3,Right,700,56,52,None,None,n,NA,1,ACC_1-1,experiment,acc,Female,Right,21,1,0
1010074,Left,1,Left,867,-2,1,None,None,n,NA,1,ACC_1-1,experiment,acc,Female,Right,21,1,0
1017436,Left,1,Left,799,51,42,Sound_1,None,n,NA,1,ACC_1-1,experiment,acc,Female,Right,21,1,0
1025264,Right,4,Right,598,-7,-7,Sound_1,None,n,NA,1,ACC_1-1,experiment,acc,Female,Right,21,1,0
1032860,Left,7,Left,798,55,52,None,Incongruent,n,NA,1,ACC_1-1,experiment,acc,Female,Right,21,1,0
1041920,Right,4,Right,732,-1,1,None,Congruent,n,NA,1,ACC_1-1,experiment,acc,Female,Right,21,1,0
1049149,Right,2,Right,631,-50,-49,Sound_1,Incongruent,y,2,1,ACC_1-1,experiment,acc,Female,Right,21,1,0
1056779,Left,4,Left,564,3,2,Sound_1,None,y,4,1,ACC_1-1,experiment,acc,Female,Right,21,1,0
1064341,Right,1,Right,499,49,51,None,None,y,1,1,ACC_1-1,experiment,acc,Female,Right,21,1,0
1073802,Right,2,Right,601,-50,-51,Sound_1,Congruent,n,NA,1,ACC_1-1,experiment,acc,Female,Right,21,1,0
1083397,Left,8,Left,630,50,51,Sound_1,None,y,8,1,ACC_1-1,experiment,acc,Female,Right,21,1,0
1091192,Right,8,Right,465,-4,-4,Sound_1,None,y,8,1,ACC_1-1,experiment,acc,Female,Right,21,1,0
1098654,Right,8,Right,699,44,44,None,Congruent,n,NA,1,ACC_1-1,experiment,acc,Female,Right,21,1,0
1105849,Left,4,Left,699,-5,-3,Sound_1,Congruent,n,NA,1,ACC_1-1,experiment,acc,Female,Right,21,1,0
1114011,Right,4,Right,732,-53,-51,Sound_1,Incongruent,n,NA,1,ACC_1-1,experiment,acc,Female,Right,21,1,0
1123741,Left,6,Left,834,48,46,Sound_1,Incongruent,n,NA,1,ACC_1-1,experiment,acc,Female,Right,21,1,0
1131568,Left,1,Left,799,-7,-7,None,Incongruent,y,1,1,ACC_1-1,experiment,acc,Female,Right,21,1,0
1139364,Left,2,Left,969,-50,-45,Sound_1,None,n,NA,1,ACC_1-1,experiment,acc,Female,Right,21,1,0
1147594,Right,8,Right,697,-3,-3,Sound_1,Incongruent,n,NA,1,ACC_1-1,experiment,acc,Female,Right,21,1,0
1155255,Left,6,Left,898,-50,-49,None,Incongruent,y,6,1,ACC_1-1,experiment,acc,Female,Right,21,1,0
1165516,Right,2,Right,698,51,48,Sound_1,None,n,NA,1,ACC_1-1,experiment,acc,Female,Right,21,1,0
1175409,Left,7,Left,764,-50,-48,None,Congruent,n,NA,1,ACC_1-1,experiment,acc,Female,Right,21,1,0
1184701,Left,5,Left,764,33,35,Sound_1,None,y,5,1,ACC_1-1,experiment,acc,Female,Right,21,1,0
1192429,Right,5,Right,899,-1,-4,None,None,n,NA,1,ACC_1-1,experiment,acc,Female,Right,21,1,0
1199792,Left,1,Left,732,-51,-54,None,None,y,1,1,ACC_1-1,experiment,acc,Female,Right,21,1,0
1207653,Left,2,Left,999,0,3,None,Congruent,n,NA,1,ACC_1-1,experiment,acc,Female,Right,21,1,0
1215116,Left,7,None,1001,34,34,Sound_1,Incongruent,y,7,1,ACC_1-1,experiment,acc,Female,Right,21,0,1
1222412,Left,7,Left,765,-4,0,None,Incongruent,y,7,1,ACC_1-1,experiment,acc,Female,Right,21,1,0
1230175,Right,6,Right,566,48,45,Sound_1,Incongruent,n,NA,1,ACC_1-1,experiment,acc,Female,Right,21,1,0
1241768,Left,3,Left,698,-51,-52,None,None,n,NA,1,ACC_1-1,experiment,acc,Female,Right,21,1,0
1248963,Right,3,Right,564,3,0,Sound_1,Incongruent,y,3,1,ACC_1-1,experiment,acc,Female,Right,21,1,0
1256526,Left,8,Left,599,-42,-44,None,Congruent,y,8,1,ACC_1-1,experiment,acc,Female,Right,21,1,0
1264421,Left,6,Left,732,-3,-4,Sound_1,Incongruent,y,6,1,ACC_1-1,experiment,acc,Female,Right,21,1,0
1272117,Left,8,Left,765,54,51,Sound_1,Congruent,n,NA,1,ACC_1-1,experiment,acc,Female,Right,21,1,0
1279846,Right,8,Right,698,-11,-9,None,Congruent,y,8,1,ACC_1-1,experiment,acc,Female,Right,21,1,0
1287542,Left,1,Left,865,46,43,None,Incongruent,n,NA,1,ACC_1-1,experiment,acc,Female,Right,21,1,0
1296901,Right,8,Right,698,-41,-41,Sound_1,Incongruent,y,8,1,ACC_1-1,experiment,acc,Female,Right,21,1,0
1304796,Right,5,Right,665,0,0,None,Congruent,y,5,1,ACC_1-1,experiment,acc,Female,Right,21,1,0
1313124,Right,2,Right,568,42,45,None,Incongruent,y,2,1,ACC_1-1,experiment,acc,Female,Right,21,1,0
1327449,Right,7,Right,865,-46,-30,Sound_1,Incongruent,n,NA,1,ACC_1-1,experiment,acc,Female,Right,21,1,0
1337309,Left,4,Left,832,46,46,Sound_1,None,n,NA,1,ACC_1-1,experiment,acc,Female,Right,21,1,0
1345438,Left,8,Left,697,-3,0,Sound_1,Congruent,y,8,1,ACC_1-1,experiment,acc,Female,Right,21,1,0
1353133,Right,8,Right,869,51,49,None,Incongruent,y,8,1,ACC_1-1,experiment,acc,Female,Right,21,1,0
1363227,Left,7,Left,631,-36,-32,Sound_1,Congruent,y,7,1,ACC_1-1,experiment,acc,Female,Right,21,1,0
1370889,Right,1,Right,566,6,7,Sound_1,None,n,NA,1,ACC_1-1,experiment,acc,Female,Right,21,1,0
1378518,Right,7,Right,697,-33,-27,Sound_1,None,y,7,1,ACC_1-1,experiment,acc,Female,Right,21,1,0
1390312,Left,3,Left,866,5,6,None,Congruent,y,3,1,ACC_1-1,experiment,acc,Female,Right,21,1,0
1398142,Right,7,Right,598,52,54,Sound_1,Incongruent,y,7,1,ACC_1-1,experiment,acc,Female,Right,21,1,0
1405872,Right,1,Right,765,-7,-3,None,Congruent,n,NA,1,ACC_1-1,experiment,acc,Female,Right,21,1,0
1413133,Left,3,Left,599,-40,-34,None,Incongruent,y,3,1,ACC_1-1,experiment,acc,Female,Right,21,1,0
1420695,Left,4,Left,899,8,4,None,Incongruent,y,4,1,ACC_1-1,experiment,acc,Female,Right,21,1,0
1428559,Left,7,Left,831,-35,-32,None,None,y,7,1,ACC_1-1,experiment,acc,Female,Right,21,1,0
1438419,Left,8,Left,800,39,34,None,None,n,NA,1,ACC_1-1,experiment,acc,Female,Right,21,1,0
1445715,Right,7,Right,598,-3,-1,None,Incongruent,y,7,1,ACC_1-1,experiment,acc,Female,Right,21,1,0
1453310,Left,5,Left,665,-41,-35,Sound_1,None,n,NA,1,ACC_1-1,experiment,acc,Female,Right,21,1,0
1461039,Right,6,Right,565,7,6,Sound_1,Congruent,n,NA,1,ACC_1-1,experiment,acc,Female,Right,21,1,0
1470335,Right,3,Right,430,46,46,Sound_1,None,y,3,1,ACC_1-1,experiment,acc,Female,Right,21,1,0
1477863,Right,4,Right,566,-5,2,None,Incongruent,y,4,1,ACC_1-1,experiment,acc,Female,Right,21,1,0
1485526,Left,6,Left,699,-37,-35,Sound_1,Congruent,n,NA,1,ACC_1-1,experiment,acc,Female,Right,21,1,0
1495254,Left,6,Left,965,41,36,None,Congruent,n,NA,1,ACC_1-1,experiment,acc,Female,Right,21,1,0
1504681,Right,7,Right,568,-36,-35,None,Congruent,y,7,1,ACC_1-1,experiment,acc,Female,Right,21,1,0
1514909,Right,6,Right,964,44,41,Sound_1,None,y,6,1,ACC_1-1,experiment,acc,Female,Right,21,1,0
1526268,Right,4,Right,532,2,4,Sound_1,Congruent,y,4,1,ACC_1-1,experiment,acc,Female,Right,21,1,0
1534997,Left,6,Left,532,47,47,None,None,y,6,1,ACC_1-1,experiment,acc,Female,Right,21,1,0
1544492,Right,8,Right,835,-42,-40,None,Incongruent,n,NA,1,ACC_1-1,experiment,acc,Female,Right,21,1,0
1551820,Right,7,Right,665,7,8,Sound_1,Congruent,y,7,1,ACC_1-1,experiment,acc,Female,Right,21,1,0
1559449,Right,3,Right,699,53,55,Sound_1,Incongruent,n,NA,1,ACC_1-1,experiment,acc,Female,Right,21,1,0
1567745,Right,6,Right,565,-8,-1,None,None,y,6,1,ACC_1-1,experiment,acc,Female,Right,21,1,0
1576473,Right,4,Right,533,46,46,Sound_1,Incongruent,y,4,1,ACC_1-1,experiment,acc,Female,Right,21,1,0
1586001,Left,5,Left,564,-40,-39,Sound_1,Incongruent,y,5,1,ACC_1-1,experiment,acc,Female,Right,21,1,0
1593563,Left,5,Left,665,8,9,Sound_1,Congruent,y,5,1,ACC_1-1,experiment,acc,Female,Right,21,1,0
1601226,Left,7,None,1001,-51,-46,Sound_1,Incongruent,n,NA,1,ACC_1-1,experiment,acc,Female,Right,21,0,1
1610620,Left,3,Left,635,43,43,None,None,y,3,1,ACC_1-1,experiment,acc,Female,Right,21,1,0
1619182,Right,1,Right,532,-2,1,None,Incongruent,y,1,1,ACC_1-1,experiment,acc,Female,Right,21,1,0
1626712,Right,5,Right,699,46,47,None,Congruent,n,NA,1,ACC_1-1,experiment,acc,Female,Right,21,1,0
1635906,Right,1,Right,635,-40,-39,None,None,n,NA,1,ACC_1-1,experiment,acc,Female,Right,21,1,0
1645000,Left,1,Left,665,41,41,Sound_1,Incongruent,y,1,1,ACC_1-1,experiment,acc,Female,Right,21,1,0
1652662,Left,2,Left,666,-6,-1,Sound_1,Congruent,y,2,1,ACC_1-1,experiment,acc,Female,Right,21,1,0
1660291,Right,5,Right,599,-41,-38,Sound_1,Congruent,n,NA,1,ACC_1-1,experiment,acc,Female,Right,21,1,0
1669885,Left,2,Left,799,50,48,None,Incongruent,y,2,1,ACC_1-1,experiment,acc,Female,Right,21,1,0
2231,Left,4,None,1001,-2,-2,None,None,n,NA,1,ACC_4-1,practice,acc,Female,Right,21,0,1
9843,Left,7,Left,932,-36,-32,None,Congruent,n,NA,1,ACC_4-1,practice,acc,Female,Right,21,1,0
19304,Right,1,Right,632,46,0,Sound_1,Congruent,n,NA,1,ACC_4-1,practice,acc,Female,Right,21,1,0
30263,Right,7,Right,566,6,5,Sound_1,None,n,NA,1,ACC_4-1,practice,acc,Female,Right,21,1,0
37825,Right,1,None,1001,34,40,None,Incongruent,n,NA,1,ACC_4-1,practice,acc,Female,Right,21,0,1
50485,Right,5,Right,864,-48,-42,None,None,y,5,1,ACC_4-1,practice,acc,Female,Right,21,1,0
61644,Left,1,Left,665,57,45,Sound_1,None,n,NA,1,ACC_4-1,practice,acc,Female,Right,21,1,0
72803,Right,1,Right,232,-56,-57,Sound_1,None,y,1,1,ACC_4-1,practice,acc,Female,Right,21,1,0
82030,Left,4,Left,734,0,-3,Sound_1,Congruent,n,NA,1,ACC_4-1,practice,acc,Female,Right,21,1,0
98686,Right,4,Right,798,-49,-47,Sound_1,None,y,4,1,ACC_4-1,practice,acc,Female,Right,21,1,0
109379,Right,6,Right,733,4,-4,None,None,y,6,1,ACC_4-1,practice,acc,Female,Right,21,1,0
123538,Right,7,Right,831,51,47,Sound_1,Congruent,n,NA,1,ACC_4-1,practice,acc,Female,Right,21,1,0
133364,Left,6,Left,570,-32,-32,None,Incongruent,y,6,1,ACC_4-1,practice,acc,Female,Right,21,1,0
140992,Left,2,Left,632,3,0,None,None,y,2,1,ACC_4-1,practice,acc,Female,Right,21,1,0
148621,Left,8,Left,665,-43,-39,None,Congruent,y,8,1,ACC_4-1,practice,acc,Female,Right,21,1,0
156284,Left,3,Left,633,6,0,Sound_1,None,n,NA,1,ACC_4-1,practice,acc,Female,Right,21,1,0
166311,Left,6,Left,731,49,42,None,Congruent,n,NA,1,ACC_4-1,practice,acc,Female,Right,21,1,0
176436,Right,2,Right,466,-54,-53,None,None,y,2,1,ACC_4-1,practice,acc,Female,Right,21,1,0
183932,Right,3,Right,531,-2,1,Sound_1,Incongruent,y,3,1,ACC_4-1,practice,acc,Female,Right,21,1,0
191460,Left,3,Left,704,-53,-48,Sound_1,Congruent,n,NA,1,ACC_4-1,practice,acc,Female,Right,21,1,0
199155,Right,8,Right,632,0,1,Sound_1,None,y,8,1,ACC_4-1,practice,acc,Female,Right,21,1,0
206883,Right,5,Right,731,57,51,Sound_1,Congruent,y,5,1,ACC_4-1,practice,acc,Female,Right,21,1,0
216611,Right,4,Right,769,-47,-42,None,None,n,NA,1,ACC_4-1,practice,acc,Female,Right,21,1,0
225873,Right,6,Right,696,42,31,Sound_1,None,y,6,1,ACC_4-1,practice,acc,Female,Right,21,1,0
4163,Right,4,Right,664,-33,-30,Sound_1,None,y,4,1,ACC_8-1,practice,acc,Female,Right,20,1,0
13824,Right,1,Right,964,42,39,Sound_1,Congruent,n,NA,1,ACC_8-1,practice,acc,Female,Right,20,1,0
23784,Right,5,Right,732,-45,-47,None,None,y,5,1,ACC_8-1,practice,acc,Female,Right,20,1,0
31512,Left,4,Left,833,-4,-2,None,None,n,NA,1,ACC_8-1,practice,acc,Female,Right,20,1,0
38841,Right,1,Right,532,-47,-31,Sound_1,None,y,1,1,ACC_8-1,practice,acc,Female,Right,20,1,0
48335,Right,6,Left,164,50,46,Sound_1,None,y,6,1,ACC_8-1,practice,acc,Female,Right,20,0,1
57362,Left,8,Left,734,-32,-36,None,Congruent,y,8,1,ACC_8-1,practice,acc,Female,Right,20,1,0
65390,Right,8,Right,664,2,-1,Sound_1,None,y,8,1,ACC_8-1,practice,acc,Female,Right,20,1,0
73052,Left,6,Left,832,-51,-53,None,Incongruent,y,6,1,ACC_8-1,practice,acc,Female,Right,20,1,0
82846,Right,1,Right,866,40,38,None,Incongruent,n,NA,1,ACC_8-1,practice,acc,Female,Right,20,1,0
90240,Right,3,Right,798,0,0,Sound_1,Incongruent,y,3,1,ACC_8-1,practice,acc,Female,Right,20,1,0
98036,Left,1,Left,831,49,43,Sound_1,None,n,NA,1,ACC_8-1,practice,acc,Female,Right,20,1,0
107863,Left,3,Left,632,-40,-41,Sound_1,Congruent,n,NA,1,ACC_8-1,practice,acc,Female,Right,20,1,0
115458,Left,4,Left,967,0,-3,Sound_1,Congruent,n,NA,1,ACC_8-1,practice,acc,Female,Right,20,1,0
128183,Right,5,Right,697,51,58,Sound_1,Congruent,y,5,1,ACC_8-1,practice,acc,Female,Right,20,1,0
154532,Right,2,Right,599,-58,-56,None,None,y,2,1,ACC_8-1,practice,acc,Female,Right,20,1,0
172921,Right,7,Right,665,35,31,Sound_1,Congruent,n,NA,1,ACC_8-1,practice,acc,Female,Right,20,1,0
180715,Right,7,Right,866,-1,-2,Sound_1,None,n,NA,1,ACC_8-1,practice,acc,Female,Right,20,1,0
188577,Left,6,Left,799,57,53,None,Congruent,n,NA,1,ACC_8-1,practice,acc,Female,Right,20,1,0
196172,Left,3,Left,903,-6,-2,Sound_1,None,n,NA,1,ACC_8-1,practice,acc,Female,Right,20,1,0
206299,Left,7,Left,833,-45,-43,None,Congruent,n,NA,1,ACC_8-1,practice,acc,Female,Right,20,1,0
213894,Left,2,Left,665,-3,-2,None,None,y,2,1,ACC_8-1,practice,acc,Female,Right,20,1,0
221556,Right,4,Right,765,-48,-43,None,None,n,NA,1,ACC_8-1,practice,acc,Female,Right,20,1,0
228918,Right,6,Right,798,-2,-2,None,None,y,6,1,ACC_8-1,practice,acc,Female,Right,20,1,0
5796,Left,7,None,1001,-33,-34,None,Congruent,n,NA,1,ACC_6-1,practice,acc,Female,Right,22,0,1
15473,Right,6,Right,964,39,42,Sound_1,None,y,6,1,ACC_6-1,practice,acc,Female,Right,22,1,0
25467,Left,3,Left,831,-56,-49,Sound_1,Congruent,n,NA,1,ACC_6-1,practice,acc,Female,Right,22,1,0
34227,Left,4,Left,933,-8,-6,None,None,n,NA,1,ACC_6-1,practice,acc,Female,Right,22,1,0
41656,Right,4,Right,832,-46,-45,None,None,n,NA,1,ACC_6-1,practice,acc,Female,Right,22,1,0
49551,Left,2,Left,698,-7,-7,None,None,y,2,1,ACC_6-1,practice,acc,Female,Right,22,1,0
57280,Right,5,Right,664,-54,-54,None,None,y,5,1,ACC_6-1,practice,acc,Female,Right,22,1,0
65607,Right,6,Right,666,-4,-2,None,None,y,6,1,ACC_6-1,practice,acc,Female,Right,22,1,0
73236,Left,6,None,1001,-55,-55,None,Incongruent,y,6,1,ACC_6-1,practice,acc,Female,Right,22,0,1
82596,Right,1,Right,765,52,51,Sound_1,Congruent,n,NA,1,ACC_6-1,practice,acc,Female,Right,22,1,0
92323,Right,1,Left,265,-55,-55,Sound_1,None,y,1,1,ACC_6-1,practice,acc,Female,Right,22,0,1
99552,Left,4,Left,798,-5,-7,Sound_1,Congruent,n,NA,1,ACC_6-1,practice,acc,Female,Right,22,1,0
107347,Right,2,Right,565,-39,-38,None,None,y,2,1,ACC_6-1,practice,acc,Female,Right,22,1,0
116874,Right,7,Right,632,32,31,Sound_1,Congruent,n,NA,1,ACC_6-1,practice,acc,Female,Right,22,1,0
125368,Left,3,Left,632,-2,-2,Sound_1,None,n,NA,1,ACC_6-1,practice,acc,Female,Right,22,1,0
132997,Right,5,Left,265,52,53,Sound_1,Congruent,y,5,1,ACC_6-1,practice,acc,Female,Right,22,0,1
140159,Right,8,Right,865,-1,0,Sound_1,None,y,8,1,ACC_6-1,practice,acc,Female,Right,22,1,0
148021,Right,1,None,1001,53,44,None,Incongruent,n,NA,1,ACC_6-1,practice,acc,Female,Right,22,0,1
154916,Right,7,Right,732,0,2,Sound_1,None,n,NA,1,ACC_6-1,practice,acc,Female,Right,22,1,0
162644,Left,6,Left,666,48,46,None,Congruent,n,NA,1,ACC_6-1,practice,acc,Female,Right,22,1,0
171805,Right,4,Right,665,-49,-50,Sound_1,None,y,4,1,ACC_6-1,practice,acc,Female,Right,22,1,0
181466,Left,1,Left,632,54,55,Sound_1,None,n,NA,1,ACC_6-1,practice,acc,Female,Right,22,1,0
191060,Left,8,Left,798,-42,-43,None,Congruent,y,8,1,ACC_6-1,practice,acc,Female,Right,22,1,0
198855,Right,3,Right,731,-1,-2,Sound_1,Incongruent,y,3,1,ACC_6-1,practice,acc,Female,Right,22,1,0
23551,Left,1,Left,965,36,20,Sound_1,None,n,NA,1,ACC_5-1,practice,acc,Female,Right,23,1,0
62176,Left,4,Left,698,5,1,Sound_1,Congruent,n,NA,1,ACC_5-1,practice,acc,Female,Right,23,1,0
71969,Left,7,Left,599,-38,-41,None,Congruent,n,NA,1,ACC_5-1,practice,acc,Female,Right,23,1,0
79964,Left,3,Left,799,3,3,Sound_1,None,n,NA,1,ACC_5-1,practice,acc,Female,Right,23,1,0
87726,Left,8,Left,532,-52,-55,None,Congruent,y,8,1,ACC_5-1,practice,acc,Female,Right,23,1,0
95254,Left,4,Left,599,2,-1,None,None,n,NA,1,ACC_5-1,practice,acc,Female,Right,23,1,0
102350,Right,2,Right,565,-38,-34,None,None,y,2,1,ACC_5-1,practice,acc,Female,Right,23,1,0
111943,Left,6,Left,633,33,31,None,Congruent,n,NA,1,ACC_5-1,practice,acc,Female,Right,23,1,0
121937,Right,4,Right,832,-36,-22,None,None,n,NA,1,ACC_5-1,practice,acc,Female,Right,23,1,0
137260,Right,6,Right,665,32,37,Sound_1,None,y,6,1,ACC_5-1,practice,acc,Female,Right,23,1,0
146887,Right,1,Right,498,-38,-37,Sound_1,None,y,1,1,ACC_5-1,practice,acc,Female,Right,23,1,0
154349,Right,8,Right,497,1,-3,Sound_1,None,y,8,1,ACC_5-1,practice,acc,Female,Right,23,1,0
161844,Right,1,Right,666,34,39,Sound_1,Congruent,n,NA,1,ACC_5-1,practice,acc,Female,Right,23,1,0
171804,Right,4,Right,431,-42,-40,Sound_1,None,y,4,1,ACC_5-1,practice,acc,Female,Right,23,1,0
179399,Left,2,Left,532,6,-1,None,None,y,2,1,ACC_5-1,practice,acc,Female,Right,23,1,0
186894,Right,7,Right,732,34,34,Sound_1,Congruent,n,NA,1,ACC_5-1,practice,acc,Female,Right,23,1,0
194589,Right,7,Right,599,-6,-4,Sound_1,None,n,NA,1,ACC_5-1,practice,acc,Female,Right,23,1,0
202151,Left,6,Left,599,-37,-40,None,Incongruent,y,6,1,ACC_5-1,practice,acc,Female,Right,23,1,0
209781,Right,6,Right,430,3,1,None,None,y,6,1,ACC_5-1,practice,acc,Female,Right,23,1,0
217208,Left,3,Left,698,-35,-39,Sound_1,Congruent,n,NA,1,ACC_5-1,practice,acc,Female,Right,23,1,0
228468,Right,1,Right,735,31,32,None,Incongruent,n,NA,1,ACC_5-1,practice,acc,Female,Right,23,1,0
237861,Right,5,Right,466,-33,-33,None,None,y,5,1,ACC_5-1,practice,acc,Female,Right,23,1,0
247821,Right,5,Right,565,34,34,Sound_1,Congruent,y,5,1,ACC_5-1,practice,acc,Female,Right,23,1,0
255351,Right,3,Right,563,-7,-7,Sound_1,Incongruent,y,3,1,ACC_5-1,practice,acc,Female,Right,23,1,0
2431,Right,8,None,1001,-3,7,Sound_1,None,y,8,1,ACC_8-1,experiment,acc,Female,Right,20,0,1
10925,Right,7,Right,698,-41,-38,Sound_1,Incongruent,n,NA,1,ACC_8-1,experiment,acc,Female,Right,20,1,0
18620,Right,6,Right,632,0,-1,None,None,y,6,1,ACC_8-1,experiment,acc,Female,Right,20,1,0
26248,Left,1,Left,799,39,44,None,Incongruent,n,NA,1,ACC_8-1,experiment,acc,Female,Right,20,1,0
33810,Left,7,Left,632,2,-4,Sound_1,Congruent,n,NA,1,ACC_8-1,experiment,acc,Female,Right,20,1,0
41838,Right,8,Right,533,42,44,Sound_1,Congruent,y,8,1,ACC_8-1,experiment,acc,Female,Right,20,1,0
50866,Right,2,Right,932,6,-2,None,None,n,NA,1,ACC_8-1,experiment,acc,Female,Right,20,1,0
58328,Right,6,Right,665,-40,-39,None,Incongruent,y,6,1,ACC_8-1,experiment,acc,Female,Right,20,1,0
66023,Left,3,Left,730,-2,-4,Sound_1,Incongruent,y,3,1,ACC_8-1,experiment,acc,Female,Right,20,1,0
73751,Right,6,Right,497,-48,-45,Sound_1,Congruent,y,6,1,ACC_8-1,experiment,acc,Female,Right,20,1,0
84144,Left,4,Left,797,58,56,Sound_1,Incongruent,y,4,1,ACC_8-1,experiment,acc,Female,Right,20,1,0
91939,Left,1,Left,632,-5,-7,None,Incongruent,y,1,1,ACC_8-1,experiment,acc,Female,Right,20,1,0
100167,Left,6,Left,799,-35,-45,None,Incongruent,y,6,1,ACC_8-1,experiment,acc,Female,Right,20,1,0
108095,Right,8,Right,834,-1,-2,None,None,n,NA,1,ACC_8-1,experiment,acc,Female,Right,20,1,0
115424,Left,7,Left,598,38,38,Sound_1,Incongruent,y,7,1,ACC_8-1,experiment,acc,Female,Right,20,1,0
123319,Right,2,Right,765,0,0,Sound_1,Incongruent,n,NA,1,ACC_8-1,experiment,acc,Female,Right,20,1,0
131080,Right,8,Right,764,-48,-50,Sound_1,Incongruent,y,8,1,ACC_8-1,experiment,acc,Female,Right,20,1,0
139308,Right,6,Right,699,-3,-4,Sound_1,Congruent,n,NA,1,ACC_8-1,experiment,acc,Female,Right,20,1,0
147003,Right,6,Right,767,39,38,None,None,n,NA,1,ACC_8-1,experiment,acc,Female,Right,20,1,0
154232,Left,1,Left,698,-2,-2,Sound_1,Congruent,n,NA,1,ACC_8-1,experiment,acc,Female,Right,20,1,0
161927,Right,5,Right,798,-41,-43,Sound_1,Congruent,n,NA,1,ACC_8-1,experiment,acc,Female,Right,20,1,0
173653,Left,4,None,1001,56,5,Sound_1,None,n,NA,1,ACC_8-1,experiment,acc,Female,Right,20,0,1
181647,Right,8,Right,766,-2,-3,None,Congruent,y,8,1,ACC_8-1,experiment,acc,Female,Right,20,1,0
191075,Left,3,None,1001,-53,-49,Sound_1,None,y,3,1,ACC_8-1,experiment,acc,Female,Right,20,0,1
204799,Right,5,Right,832,-2,0,None,None,n,NA,1,ACC_8-1,experiment,acc,Female,Right,20,1,0
212128,Right,2,Right,964,-37,-32,Sound_1,Incongruent,y,2,1,ACC_8-1,experiment,acc,Female,Right,20,1,0
222787,Left,5,Left,766,37,37,None,None,n,NA,1,ACC_8-1,experiment,acc,Female,Right,20,1,0
230015,Left,4,None,1001,4,-4,None,None,n,NA,1,ACC_8-1,experiment,acc,Female,Right,20,0,1
238144,Left,4,None,1001,-59,-60,None,Congruent,n,NA,1,ACC_8-1,experiment,acc,Female,Right,20,0,1
251102,Right,1,Right,699,51,43,None,Incongruent,n,NA,1,ACC_8-1,experiment,acc,Female,Right,20,1,0
260263,Left,7,Left,536,-42,-42,None,None,y,7,1,ACC_8-1,experiment,acc,Female,Right,20,1,0
270257,Right,3,Right,532,45,41,None,Congruent,y,3,1,ACC_8-1,experiment,acc,Female,Right,20,1,0
278352,Left,8,Left,835,-11,-10,Sound_1,Congruent,y,8,1,ACC_8-1,experiment,acc,Female,Right,20,1,0
286180,Left,7,Left,567,32,29,Sound_1,None,n,NA,1,ACC_8-1,experiment,acc,Female,Right,20,1,0
298606,Left,4,Left,631,-39,-40,None,None,y,4,1,ACC_8-1,experiment,acc,Female,Right,20,1,0
310164,Left,4,None,1001,41,29,None,Incongruent,n,NA,1,ACC_8-1,experiment,acc,Female,Right,20,0,1
317761,Left,5,Right,599,-1,0,Sound_1,Incongruent,n,NA,1,ACC_8-1,experiment,acc,Female,Right,20,0,1
325222,Right,7,Right,431,-43,-44,Sound_1,None,y,7,1,ACC_8-1,experiment,acc,Female,Right,20,1,0
334649,Left,1,Left,667,36,32,Sound_1,Incongruent,y,1,1,ACC_8-1,experiment,acc,Female,Right,20,1,0
345342,Right,4,Right,566,-54,-52,Sound_1,Incongruent,n,NA,1,ACC_8-1,experiment,acc,Female,Right,20,1,0
354903,Left,5,Left,566,51,45,None,Incongruent,y,5,1,ACC_8-1,experiment,acc,Female,Right,20,1,0
362432,Left,6,Left,631,-8,0,Sound_1,None,n,NA,1,ACC_8-1,experiment,acc,Female,Right,20,1,0
374290,Left,3,None,1001,36,48,Sound_1,Incongruent,n,NA,1,ACC_8-1,experiment,acc,Female,Right,20,0,1
381685,Right,2,Right,600,2,-1,Sound_1,None,y,2,1,ACC_8-1,experiment,acc,Female,Right,20,1,0
389280,Right,1,Right,699,-54,-49,Sound_1,Incongruent,n,NA,1,ACC_8-1,experiment,acc,Female,Right,20,1,0
396976,Left,4,Left,565,0,0,Sound_1,Congruent,n,NA,1,ACC_8-1,experiment,acc,Female,Right,20,1,0
404504,Right,4,Right,765,40,36,None,None,y,4,1,ACC_8-1,experiment,acc,Female,Right,20,1,0
415364,Left,4,Left,732,-50,-62,Sound_1,Incongruent,n,NA,1,ACC_8-1,experiment,acc,Female,Right,20,1,0
423925,Left,5,Left,699,-2,-1,None,Congruent,n,NA,1,ACC_8-1,experiment,acc,Female,Right,20,1,0
431120,Left,6,Left,631,-42,-41,Sound_1,None,y,6,1,ACC_8-1,experiment,acc,Female,Right,20,1,0
439148,Left,4,Left,666,-2,0,None,Incongruent,y,4,1,ACC_8-1,experiment,acc,Female,Right,20,1,0
446810,Left,2,Left,733,-43,-41,None,Incongruent,n,NA,1,ACC_8-1,experiment,acc,Female,Right,20,1,0
456504,Right,8,Right,732,50,44,None,Incongruent,y,8,1,ACC_8-1,experiment,acc,Female,Right,20,1,0
464233,Left,6,Left,598,-5,-4,None,Congruent,y,6,1,ACC_8-1,experiment,acc,Female,Right,20,1,0
471828,Right,8,Right,531,36,37,Sound_1,None,n,NA,1,ACC_8-1,experiment,acc,Female,Right,20,1,0
479489,Left,7,Left,699,-1,-2,None,Incongruent,y,7,1,ACC_8-1,experiment,acc,Female,Right,20,1,0
487118,Left,1,Left,665,-34,-34,None,Congruent,n,NA,1,ACC_8-1,experiment,acc,Female,Right,20,1,0
494247,Left,8,Left,567,-2,-2,None,None,y,8,1,ACC_8-1,experiment,acc,Female,Right,20,1,0
501808,Left,8,Left,601,38,31,None,Incongruent,y,8,1,ACC_8-1,experiment,acc,Female,Right,20,1,0
509404,Right,5,Right,532,0,-2,Sound_1,None,y,5,1,ACC_8-1,experiment,acc,Female,Right,20,1,0
516932,Right,6,Right,665,38,31,None,Congruent,y,6,1,ACC_8-1,experiment,acc,Female,Right,20,1,0
524561,Left,6,Left,665,-1,-2,Sound_1,Incongruent,y,6,1,ACC_8-1,experiment,acc,Female,Right,20,1,0
533723,Left,5,Left,731,-48,-40,None,Congruent,y,5,1,ACC_8-1,experiment,acc,Female,Right,20,1,0
541484,Right,3,Right,733,1,-1,None,Incongruent,n,NA,1,ACC_8-1,experiment,acc,Female,Right,20,1,0
548713,Left,3,Left,733,-37,-36,None,None,n,NA,1,ACC_8-1,experiment,acc,Female,Right,20,1,0
558540,Right,7,Right,698,43,38,Sound_1,Incongruent,y,7,1,ACC_8-1,experiment,acc,Female,Right,20,1,0
566235,Right,7,Right,732,-3,-3,None,Incongruent,y,7,1,ACC_8-1,experiment,acc,Female,Right,20,1,0
573964,Right,4,Right,834,33,33,None,Incongruent,n,NA,1,ACC_8-1,experiment,acc,Female,Right,20,1,0
581293,Right,4,Right,898,-3,-4,Sound_1,None,n,NA,1,ACC_8-1,experiment,acc,Female,Right,20,1,0
589188,Left,4,Left,800,33,34,None,Congruent,y,4,1,ACC_8-1,experiment,acc,Female,Right,20,1,0
596984,Right,1,Right,565,-3,-1,Sound_1,None,n,NA,1,ACC_8-1,experiment,acc,Female,Right,20,1,0
604546,Left,6,Left,799,37,34,None,Congruent,n,NA,1,ACC_8-1,experiment,acc,Female,Right,20,1,0
612008,Right,7,Right,498,-1,0,Sound_1,Congruent,y,7,1,ACC_8-1,experiment,acc,Female,Right,20,1,0
620537,Right,1,Right,531,43,25,Sound_1,Incongruent,y,1,1,ACC_8-1,experiment,acc,Female,Right,20,1,0
630465,Right,7,Right,698,-43,-41,None,None,n,NA,1,ACC_8-1,experiment,acc,Female,Right,20,1,0
637660,Right,6,Right,664,0,-2,Sound_1,Incongruent,y,6,1,ACC_8-1,experiment,acc,Female,Right,20,1,0
645355,Right,7,Right,733,39,36,None,None,y,7,1,ACC_8-1,experiment,acc,Female,Right,20,1,0
655515,Left,8,Left,765,-32,-31,Sound_1,None,n,NA,1,ACC_8-1,experiment,acc,Female,Right,20,1,0
665509,Left,4,Left,631,0,1,Sound_1,None,y,4,1,ACC_8-1,experiment,acc,Female,Right,20,1,0
673337,Right,1,Right,601,46,36,Sound_1,Congruent,n,NA,1,ACC_8-1,experiment,acc,Female,Right,20,1,0
683298,Right,6,Right,900,-42,-42,Sound_1,None,n,NA,1,ACC_8-1,experiment,acc,Female,Right,20,1,0
693991,Right,4,Right,632,-7,-5,None,Incongruent,y,4,1,ACC_8-1,experiment,acc,Female,Right,20,1,0
701619,Right,3,Right,632,39,34,Sound_1,Incongruent,n,NA,1,ACC_8-1,experiment,acc,Female,Right,20,1,0
709282,Right,3,Right,697,-3,-3,Sound_1,Incongruent,y,3,1,ACC_8-1,experiment,acc,Female,Right,20,1,0
716977,Left,6,Left,564,30,32,Sound_1,Congruent,y,6,1,ACC_8-1,experiment,acc,Female,Right,20,1,0
726472,Left,8,Left,699,-42,-39,None,Congruent,y,8,1,ACC_8-1,experiment,acc,Female,Right,20,1,0
736699,Left,8,Left,865,42,43,None,None,n,NA,1,ACC_8-1,experiment,acc,Female,Right,20,1,0
744194,Left,2,Left,765,-1,-1,None,Congruent,n,NA,1,ACC_8-1,experiment,acc,Female,Right,20,1,0
751456,Left,8,Left,633,47,45,Sound_1,None,y,8,1,ACC_8-1,experiment,acc,Female,Right,20,1,0
761084,Left,3,Left,865,-48,-41,Sound_1,Congruent,n,NA,1,ACC_8-1,experiment,acc,Female,Right,20,1,0
771012,Right,8,None,1001,39,38,None,Congruent,n,NA,1,ACC_8-1,experiment,acc,Female,Right,20,0,1
780540,Left,2,Left,900,-53,-49,Sound_1,None,n,NA,1,ACC_8-1,experiment,acc,Female,Right,20,1,0
790666,Right,5,Right,564,57,47,Sound_1,Congruent,y,5,1,ACC_8-1,experiment,acc,Female,Right,20,1,0
800293,Left,7,Left,598,-46,-52,Sound_1,Congruent,y,7,1,ACC_8-1,experiment,acc,Female,Right,20,1,0
808055,Right,1,Right,766,0,0,None,Congruent,n,NA,1,ACC_8-1,experiment,acc,Female,Right,20,1,0
816183,Left,1,Left,635,48,36,Sound_1,None,n,NA,1,ACC_8-1,experiment,acc,Female,Right,20,1,0
823845,Right,7,Right,699,0,0,Sound_1,None,n,NA,1,ACC_8-1,experiment,acc,Female,Right,20,1,0
831541,Right,7,Right,533,40,39,Sound_1,Congruent,n,NA,1,ACC_8-1,experiment,acc,Female,Right,20,1,0
839403,Right,3,Right,534,-2,1,Sound_1,Congruent,n,NA,1,ACC_8-1,experiment,acc,Female,Right,20,1,0
846932,Left,6,Left,765,39,38,Sound_1,Incongruent,n,NA,1,ACC_8-1,experiment,acc,Female,Right,20,1,0
859459,Left,6,Left,898,-59,-55,None,None,n,NA,1,ACC_8-1,experiment,acc,Female,Right,20,1,0
866920,Left,8,Left,733,1,0,None,Congruent,n,NA,1,ACC_8-1,experiment,acc,Female,Right,20,1,0
874149,Right,4,Right,732,40,39,Sound_1,Congruent,n,NA,1,ACC_8-1,experiment,acc,Female,Right,20,1,0
883877,Right,3,Right,799,-51,-46,None,Congruent,n,NA,1,ACC_8-1,experiment,acc,Female,Right,20,1,0
893138,Left,6,Left,832,47,43,None,None,y,6,1,ACC_8-1,experiment,acc,Female,Right,20,1,0
905031,Left,1,Left,632,-52,-55,Sound_1,Congruent,y,1,1,ACC_8-1,experiment,acc,Female,Right,20,1,0
912792,Right,6,Right,633,-1,0,None,Incongruent,n,NA,1,ACC_8-1,experiment,acc,Female,Right,20,1,0
920787,Right,3,Right,699,-37,-30,Sound_1,None,n,NA,1,ACC_8-1,experiment,acc,Female,Right,20,1,0
928449,Left,1,Left,834,-1,-1,None,None,n,NA,1,ACC_8-1,experiment,acc,Female,Right,20,1,0
935778,Left,3,Left,700,-43,-49,None,Incongruent,y,3,1,ACC_8-1,experiment,acc,Female,Right,20,1,0
945705,Left,8,Left,766,45,37,Sound_1,Congruent,n,NA,1,ACC_8-1,experiment,acc,Female,Right,20,1,0
957965,Right,4,Right,465,-41,-40,None,Congruent,y,4,1,ACC_8-1,experiment,acc,Female,Right,20,1,0
967427,Left,2,Left,598,42,41,None,Incongruent,y,2,1,ACC_8-1,experiment,acc,Female,Right,20,1,0
979086,Left,8,None,1001,-49,-46,None,Incongruent,n,NA,1,ACC_8-1,experiment,acc,Female,Right,20,0,1
989246,Left,5,Left,800,54,50,Sound_1,Congruent,n,NA,1,ACC_8-1,experiment,acc,Female,Right,20,1,0
999040,Right,1,Right,465,-46,-51,Sound_1,None,y,1,1,ACC_8-1,experiment,acc,Female,Right,20,1,0
1006503,Right,5,Right,831,-4,-4,Sound_1,Incongruent,n,NA,1,ACC_8-1,experiment,acc,Female,Right,20,1,0
1014332,Right,5,Right,665,-43,-39,None,Incongruent,n,NA,1,ACC_8-1,experiment,acc,Female,Right,20,1,0
1021494,Left,2,Left,532,-1,-1,None,None,y,2,1,ACC_8-1,experiment,acc,Female,Right,20,1,0
1029022,Right,1,Right,499,-46,-45,None,Congruent,y,1,1,ACC_8-1,experiment,acc,Female,Right,20,1,0
1040316,Right,6,None,1001,41,30,Sound_1,Incongruent,n,NA,1,ACC_8-1,experiment,acc,Female,Right,20,0,1
1047678,Right,5,Right,698,0,0,None,Congruent,y,5,1,ACC_8-1,experiment,acc,Female,Right,20,1,0
1056905,Left,1,Left,599,-43,-39,Sound_1,Incongruent,n,NA,1,ACC_8-1,experiment,acc,Female,Right,20,1,0
1065301,Left,1,Left,564,-1,-2,Sound_1,None,y,1,1,ACC_8-1,experiment,acc,Female,Right,20,1,0
1072864,Left,7,Left,833,-34,-33,None,Congruent,n,NA,1,ACC_8-1,experiment,acc,Female,Right,20,1,0
1083059,Right,3,Right,397,36,34,Sound_1,None,y,3,1,ACC_8-1,experiment,acc,Female,Right,20,1,0
1096284,Right,2,Right,566,-34,-30,None,None,y,2,1,ACC_8-1,experiment,acc,Female,Right,20,1,0
1106744,Right,7,Right,667,43,41,None,Incongruent,n,NA,1,ACC_8-1,experiment,acc,Female,Right,20,1,0
1114505,Right,4,Right,600,-2,0,None,Congruent,n,NA,1,ACC_8-1,experiment,acc,Female,Right,20,1,0
1121602,Right,5,Right,731,46,43,None,Incongruent,y,5,1,ACC_8-1,experiment,acc,Female,Right,20,1,0
1129297,Left,2,Left,531,-1,-4,Sound_1,Congruent,y,2,1,ACC_8-1,experiment,acc,Female,Right,20,1,0
1136826,Right,4,Right,732,-51,-59,None,None,n,NA,1,ACC_8-1,experiment,acc,Female,Right,20,1,0
1145355,Right,2,Right,632,-5,0,None,Congruent,y,2,1,ACC_8-1,experiment,acc,Female,Right,20,1,0
1152983,Left,2,Left,566,51,49,Sound_1,None,y,2,1,ACC_8-1,experiment,acc,Female,Right,20,1,0
1164443,Right,5,Right,767,-53,-50,None,None,y,5,1,ACC_8-1,experiment,acc,Female,Right,20,1,0
1172174,Right,4,Right,496,0,-1,Sound_1,Congruent,y,4,1,ACC_8-1,experiment,acc,Female,Right,20,1,0
1179669,Right,6,Right,731,47,48,Sound_1,None,y,6,1,ACC_8-1,experiment,acc,Female,Right,20,1,0
1196192,Left,1,Left,665,-52,-53,None,None,y,1,1,ACC_8-1,experiment,acc,Female,Right,20,1,0
1204188,Left,6,Left,832,-2,-3,None,Incongruent,n,NA,1,ACC_8-1,experiment,acc,Female,Right,20,1,0
1211716,Right,2,Right,531,35,34,Sound_1,Congruent,y,2,1,ACC_8-1,experiment,acc,Female,Right,20,1,0
1221276,Left,6,Left,701,-58,-58,Sound_1,Congruent,n,NA,1,ACC_8-1,experiment,acc,Female,Right,20,1,0
1233968,Left,7,Left,766,53,48,None,Incongruent,n,NA,1,ACC_8-1,experiment,acc,Female,Right,20,1,0
1248560,Right,5,Right,698,-54,-56,Sound_1,Incongruent,y,5,1,ACC_8-1,experiment,acc,Female,Right,20,1,0
1258654,Right,2,Right,666,50,57,None,Congruent,n,NA,1,ACC_8-1,experiment,acc,Female,Right,20,1,0
1265916,Left,5,Left,599,-4,-2,None,None,y,5,1,ACC_8-1,experiment,acc,Female,Right,20,1,0
1273677,Right,3,Right,801,36,31,None,None,n,NA,1,ACC_8-1,experiment,acc,Female,Right,20,1,0
1283004,Right,7,Right,500,-46,-53,None,Congruent,y,7,1,ACC_8-1,experiment,acc,Female,Right,20,1,0
1292898,Right,1,Right,467,50,45,None,None,y,1,1,ACC_8-1,experiment,acc,Female,Right,20,1,0
1304059,Right,2,Right,498,-51,-52,Sound_1,Congruent,n,NA,1,ACC_8-1,experiment,acc,Female,Right,20,1,0
1312086,Left,7,Left,798,1,-33,Sound_1,None,y,7,1,ACC_8-1,experiment,acc,Female,Right,20,1,0
1324378,Right,6,Right,699,-36,-35,None,Congruent,n,NA,1,ACC_8-1,experiment,acc,Female,Right,20,1,0
1331607,Left,3,Left,765,1,-3,None,Incongruent,n,NA,1,ACC_8-1,experiment,acc,Female,Right,20,1,0
1338869,Left,5,Left,565,50,51,Sound_1,None,y,5,1,ACC_8-1,experiment,acc,Female,Right,20,1,0
1348996,Left,8,Left,565,-42,-40,Sound_1,Incongruent,y,8,1,ACC_8-1,experiment,acc,Female,Right,20,1,0
1359191,Right,5,Right,865,57,54,None,Congruent,n,NA,1,ACC_8-1,experiment,acc,Female,Right,20,1,0
1368584,Left,5,Left,699,-34,-33,Sound_1,None,n,NA,1,ACC_8-1,experiment,acc,Female,Right,20,1,0
1377047,Left,3,Left,632,-8,1,Sound_1,None,n,NA,1,ACC_8-1,experiment,acc,Female,Right,20,1,0
1384675,Left,7,Left,599,53,51,None,Congruent,y,7,1,ACC_8-1,experiment,acc,Female,Right,20,1,0
1392304,Left,2,Left,831,-6,-5,Sound_1,Incongruent,n,NA,1,ACC_8-1,experiment,acc,Female,Right,20,1,0
1402297,Right,1,Right,632,-46,-32,None,None,n,NA,1,ACC_8-1,experiment,acc,Female,Right,20,1,0
1411059,Right,3,Right,565,-5,-1,None,None,y,3,1,ACC_8-1,experiment,acc,Female,Right,20,1,0
1421653,Left,2,Left,532,-58,-55,None,Congruent,y,2,1,ACC_8-1,experiment,acc,Female,Right,20,1,0
1432846,Left,3,Left,565,56,46,Sound_1,Congruent,y,3,1,ACC_8-1,experiment,acc,Female,Right,20,1,0
1445539,Left,4,Left,865,-50,-50,Sound_1,Congruent,y,4,1,ACC_8-1,experiment,acc,Female,Right,20,1,0
1459365,Left,1,Left,467,37,32,None,Congruent,y,1,1,ACC_8-1,experiment,acc,Female,Right,20,1,0
1468860,Right,3,Right,565,-40,-27,Sound_1,Congruent,y,3,1,ACC_8-1,experiment,acc,Female,Right,20,1,0
1477589,Left,7,Left,766,-6,0,None,None,n,NA,1,ACC_8-1,experiment,acc,Female,Right,20,1,0
1486117,Right,8,Right,499,-37,-36,Sound_1,Congruent,n,NA,1,ACC_8-1,experiment,acc,Female,Right,20,1,0
1497778,Left,5,Left,563,1,-2,Sound_1,Congruent,y,5,1,ACC_8-1,experiment,acc,Female,Right,20,1,0
1505340,Right,4,Right,468,-48,-46,Sound_1,None,y,4,1,ACC_8-1,experiment,acc,Female,Right,20,1,0
1514802,Left,3,Left,500,57,56,None,None,y,3,1,ACC_8-1,experiment,acc,Female,Right,20,1,0
1525129,Right,8,Right,899,-34,-32,None,None,y,8,1,ACC_8-1,experiment,acc,Female,Right,20,1,0
1534658,Right,1,Right,498,5,-3,None,Incongruent,y,1,1,ACC_8-1,experiment,acc,Female,Right,20,1,0
1544084,Left,3,None,1001,53,49,None,Congruent,n,NA,1,ACC_8-1,experiment,acc,Female,Right,20,0,1
1550980,Left,3,Left,498,-7,-5,None,Congruent,y,3,1,ACC_8-1,experiment,acc,Female,Right,20,1,0
1558941,Right,8,Right,967,-55,-53,None,Incongruent,n,NA,1,ACC_8-1,experiment,acc,Female,Right,20,1,0
1568702,Right,2,Right,732,53,53,None,Incongruent,y,2,1,ACC_8-1,experiment,acc,Female,Right,20,1,0
1580862,Left,5,Left,498,-51,-53,Sound_1,Incongruent,y,5,1,ACC_8-1,experiment,acc,Female,Right,20,1,0
1593021,Left,2,Left,599,51,56,Sound_1,Congruent,n,NA,1,ACC_8-1,experiment,acc,Female,Right,20,1,0
1601816,Right,1,Right,467,-5,-6,Sound_1,Congruent,y,1,1,ACC_8-1,experiment,acc,Female,Right,20,1,0
1611777,Right,5,None,1001,50,49,Sound_1,None,n,NA,1,ACC_8-1,experiment,acc,Female,Right,20,0,1
1624570,Left,7,Left,804,-54,-46,Sound_1,Incongruent,n,NA,1,ACC_8-1,experiment,acc,Female,Right,20,1,0
1633098,Left,8,Left,765,0,1,Sound_1,Incongruent,n,NA,1,ACC_8-1,experiment,acc,Female,Right,20,1,0
1640860,Right,3,Right,834,-40,-37,None,Incongruent,y,3,1,ACC_8-1,experiment,acc,Female,Right,20,1,0
1651653,Left,2,Left,766,55,56,None,None,n,NA,1,ACC_8-1,experiment,acc,Female,Right,20,1,0
1659180,Right,8,Right,631,-8,-5,Sound_1,Incongruent,n,NA,1,ACC_8-1,experiment,acc,Female,Right,20,1,0
1669073,Left,5,None,1001,-49,-33,None,Incongruent,n,NA,1,ACC_8-1,experiment,acc,Female,Right,20,0,1
1676734,Right,7,Right,666,-6,2,None,Congruent,n,NA,1,ACC_8-1,experiment,acc,Female,Right,20,1,0
1687162,Right,2,Right,599,44,45,Sound_1,None,n,NA,1,ACC_8-1,experiment,acc,Female,Right,20,1,0
1697688,Left,2,Left,668,-45,-46,Sound_1,Incongruent,y,2,1,ACC_8-1,experiment,acc,Female,Right,20,1,0
1707949,Right,4,Right,664,43,39,Sound_1,Incongruent,y,4,1,ACC_8-1,experiment,acc,Female,Right,20,1,0
1718876,Right,2,Right,767,-57,-52,None,Incongruent,n,NA,1,ACC_8-1,experiment,acc,Female,Right,20,1,0
18854,Right,3,None,1001,-35,-13,Sound_1,None,n,NA,1,ACC_2-1,experiment,acc,Female,Right,24,0,1
35977,Left,4,None,1001,14,10,None,None,n,NA,1,ACC_2-1,experiment,acc,Female,Right,24,0,1
44504,Left,6,None,1001,-34,-35,Sound_1,Congruent,n,NA,1,ACC_2-1,experiment,acc,Female,Right,24,0,1
61827,Left,2,None,1001,-4,3,Sound_1,Incongruent,n,NA,1,ACC_2-1,experiment,acc,Female,Right,24,0,1
70755,Right,2,None,1001,-50,-27,Sound_1,Incongruent,y,2,1,ACC_2-1,experiment,acc,Female,Right,24,0,1
92074,Right,8,Right,832,30,28,Sound_1,None,n,NA,1,ACC_2-1,experiment,acc,Female,Right,24,1,0
101918,Right,8,Right,898,-46,-39,Sound_1,Congruent,n,NA,1,ACC_2-1,experiment,acc,Female,Right,24,1,0
112511,Right,2,Right,798,40,41,None,Incongruent,y,2,1,ACC_2-1,experiment,acc,Female,Right,24,1,0
122338,Left,2,Left,932,-35,-35,Sound_1,None,n,NA,1,ACC_2-1,experiment,acc,Female,Right,24,1,0
134030,Right,8,Right,765,13,14,Sound_1,None,y,8,1,ACC_2-1,experiment,acc,Female,Right,24,1,0
147124,Left,8,Left,996,-37,-36,None,Congruent,y,8,1,ACC_2-1,experiment,acc,Female,Right,24,1,0
155350,Right,4,Right,903,-5,-4,None,Incongruent,y,4,1,ACC_2-1,experiment,acc,Female,Right,24,1,0
163378,Left,1,None,1001,-39,-40,Sound_1,Incongruent,n,NA,1,ACC_2-1,experiment,acc,Female,Right,24,0,1
175206,Left,5,Left,632,34,38,Sound_1,None,y,5,1,ACC_2-1,experiment,acc,Female,Right,24,1,0
185836,Right,1,Right,835,-42,-32,Sound_1,Incongruent,n,NA,1,ACC_2-1,experiment,acc,Female,Right,24,1,0
198829,Left,6,Left,732,36,39,None,Congruent,n,NA,1,ACC_2-1,experiment,acc,Female,Right,24,1,0
208856,Right,5,Right,831,-53,-50,Sound_1,Incongruent,y,5,1,ACC_2-1,experiment,acc,Female,Right,24,1,0
217917,Left,7,Left,634,13,14,Sound_1,None,y,7,1,ACC_2-1,experiment,acc,Female,Right,24,1,0
225579,Left,8,Left,832,46,44,None,None,n,NA,1,ACC_2-1,experiment,acc,Female,Right,24,1,0
234907,Right,6,Right,731,-52,-20,Sound_1,Congruent,y,6,1,ACC_2-1,experiment,acc,Female,Right,24,1,0
244701,Right,1,Right,697,39,38,Sound_1,Incongruent,y,1,1,ACC_2-1,experiment,acc,Female,Right,24,1,0
254261,Right,6,Right,699,0,4,None,None,y,6,1,ACC_2-1,experiment,acc,Female,Right,24,1,0
261989,Left,7,None,1001,33,33,None,Incongruent,n,NA,1,ACC_2-1,experiment,acc,Female,Right,24,0,1
275714,Right,7,Right,737,-56,-50,Sound_1,Incongruent,n,NA,1,ACC_2-1,experiment,acc,Female,Right,24,1,0
287773,Right,3,Right,732,38,39,Sound_1,Incongruent,n,NA,1,ACC_2-1,experiment,acc,Female,Right,24,1,0
297502,Left,7,Left,696,-42,-33,Sound_1,Congruent,y,7,1,ACC_2-1,experiment,acc,Female,Right,24,1,0
309759,Left,1,Left,931,46,42,Sound_1,Incongruent,y,1,1,ACC_2-1,experiment,acc,Female,Right,24,1,0
321685,Right,7,Right,865,-35,-33,None,None,n,NA,1,ACC_2-1,experiment,acc,Female,Right,24,1,0
329081,Left,3,Left,967,5,7,Sound_1,Incongruent,y,3,1,ACC_2-1,experiment,acc,Female,Right,24,1,0
339007,Right,6,Right,898,-34,-23,Sound_1,None,n,NA,1,ACC_2-1,experiment,acc,Female,Right,24,1,0
348967,Left,7,Left,803,47,57,Sound_1,None,n,NA,1,ACC_2-1,experiment,acc,Female,Right,24,1,0
359527,Right,3,Right,665,2,13,Sound_1,Congruent,n,NA,1,ACC_2-1,experiment,acc,Female,Right,24,1,0
371120,Left,4,Left,936,33,22,Sound_1,Incongruent,y,4,1,ACC_2-1,experiment,acc,Female,Right,24,1,0
381580,Left,2,Left,866,1,4,None,Congruent,n,NA,1,ACC_2-1,experiment,acc,Female,Right,24,1,0
389642,Right,1,Right,765,32,20,Sound_1,Congruent,n,NA,1,ACC_2-1,experiment,acc,Female,Right,24,1,0
397572,Right,1,Right,564,4,4,None,Incongruent,y,1,1,ACC_2-1,experiment,acc,Female,Right,24,1,0
405631,Right,5,Right,837,-39,-29,None,Incongruent,n,NA,1,ACC_2-1,experiment,acc,Female,Right,24,1,0
415159,Left,8,Left,899,55,47,None,Incongruent,y,8,1,ACC_2-1,experiment,acc,Female,Right,24,1,0
426551,Right,2,Right,933,-5,9,None,None,n,NA,1,ACC_2-1,experiment,acc,Female,Right,24,1,0
434213,Right,6,Right,867,-53,-56,None,Incongruent,y,6,1,ACC_2-1,experiment,acc,Female,Right,24,1,0
442841,Left,1,Left,801,-4,-1,Sound_1,Congruent,n,NA,1,ACC_2-1,experiment,acc,Female,Right,24,1,0
450636,Left,3,Left,902,38,34,None,None,y,3,1,ACC_2-1,experiment,acc,Female,Right,24,1,0
458564,Right,4,Right,899,3,3,None,Congruent,n,NA,1,ACC_2-1,experiment,acc,Female,Right,24,1,0
465960,Left,5,Left,830,-36,-35,Sound_1,Incongruent,y,5,1,ACC_2-1,experiment,acc,Female,Right,24,1,0
485581,Left,2,Left,931,56,47,None,None,n,NA,1,ACC_2-1,experiment,acc,Female,Right,24,1,0
495807,Right,4,Right,831,-47,-33,Sound_1,Incongruent,n,NA,1,ACC_2-1,experiment,acc,Female,Right,24,1,0
506433,Right,2,Right,732,37,40,Sound_1,None,n,NA,1,ACC_2-1,experiment,acc,Female,Right,24,1,0
518593,Left,1,Left,966,-58,-51,None,Congruent,n,NA,1,ACC_2-1,experiment,acc,Female,Right,24,1,0
532752,Right,8,Right,899,50,49,None,Congruent,n,NA,1,ACC_2-1,experiment,acc,Female,Right,24,1,0
542680,Right,8,Right,697,-34,-34,Sound_1,Incongruent,y,8,1,ACC_2-1,experiment,acc,Female,Right,24,1,0
563535,Right,2,Right,569,56,57,Sound_1,Congruent,y,2,1,ACC_2-1,experiment,acc,Female,Right,24,1,0
605915,Left,2,Left,897,-43,-56,None,Congruent,y,2,1,ACC_2-1,experiment,acc,Female,Right,24,1,0
621772,Right,6,Right,765,56,49,Sound_1,None,y,6,1,ACC_2-1,experiment,acc,Female,Right,24,1,0
640129,Right,2,Right,699,-51,-44,None,None,y,2,1,ACC_2-1,experiment,acc,Female,Right,24,1,0
649956,Left,2,Left,731,12,3,Sound_1,Congruent,y,2,1,ACC_2-1,experiment,acc,Female,Right,24,1,0
657819,Left,4,Left,703,-55,-49,Sound_1,Congruent,y,4,1,ACC_2-1,experiment,acc,Female,Right,24,1,0
667047,Right,6,Right,799,0,9,None,Incongruent,n,NA,1,ACC_2-1,experiment,acc,Female,Right,24,1,0
674377,Right,8,Right,666,43,46,None,Incongruent,y,8,1,ACC_2-1,experiment,acc,Female,Right,24,1,0
683472,Left,3,Left,702,7,3,None,Congruent,y,3,1,ACC_2-1,experiment,acc,Female,Right,24,1,0
691070,Left,8,Left,763,39,45,Sound_1,Congruent,n,NA,1,ACC_2-1,experiment,acc,Female,Right,24,1,0
702162,Right,7,Right,765,-48,-38,None,Congruent,y,7,1,ACC_2-1,experiment,acc,Female,Right,24,1,0
714854,Left,3,Left,999,37,35,Sound_1,Incongruent,n,NA,1,ACC_2-1,experiment,acc,Female,Right,24,1,0
724316,Right,7,None,1001,6,14,None,Congruent,n,NA,1,ACC_2-1,experiment,acc,Female,Right,24,0,1
732079,Left,7,Left,832,46,58,None,Congruent,y,7,1,ACC_2-1,experiment,acc,Female,Right,24,1,0
741207,Right,7,Right,699,11,13,Sound_1,None,n,NA,1,ACC_2-1,experiment,acc,Female,Right,24,1,0
748936,Right,5,Right,799,45,50,None,Incongruent,y,5,1,ACC_2-1,experiment,acc,Female,Right,24,1,0
759530,Right,8,None,1001,-47,-41,None,Incongruent,n,NA,1,ACC_2-1,experiment,acc,Female,Right,24,0,1
768426,Left,5,Left,865,44,43,Sound_1,Congruent,n,NA,1,ACC_2-1,experiment,acc,Female,Right,24,1,0
776788,Right,8,Right,765,-7,1,Sound_1,Incongruent,n,NA,1,ACC_2-1,experiment,acc,Female,Right,24,1,0
785250,Left,1,None,1001,45,33,None,Incongruent,n,NA,1,ACC_2-1,experiment,acc,Female,Right,24,0,1
792146,Right,8,Right,933,-1,11,None,None,n,NA,1,ACC_2-1,experiment,acc,Female,Right,24,1,0
799576,Left,5,Left,865,43,41,None,Incongruent,y,5,1,ACC_2-1,experiment,acc,Female,Right,24,1,0
812069,Left,7,Left,804,-39,-36,Sound_1,Incongruent,n,NA,1,ACC_2-1,experiment,acc,Female,Right,24,1,0
821897,Left,4,Left,633,33,31,None,Congruent,y,4,1,ACC_2-1,experiment,acc,Female,Right,24,1,0
830626,Left,6,Left,669,-2,5,None,Incongruent,n,NA,1,ACC_2-1,experiment,acc,Female,Right,24,1,0
841020,Left,4,Left,671,-42,-37,None,Congruent,n,NA,1,ACC_2-1,experiment,acc,Female,Right,24,1,0
849249,Right,5,Right,632,-3,1,None,Congruent,y,5,1,ACC_2-1,experiment,acc,Female,Right,24,1,0
856878,Left,3,Left,768,-34,-30,Sound_1,None,y,3,1,ACC_2-1,experiment,acc,Female,Right,24,1,0
867441,Right,2,None,1001,-8,2,None,Congruent,y,2,1,ACC_2-1,experiment,acc,Female,Right,24,0,1
876567,Left,2,Left,602,-40,-41,Sound_1,Incongruent,y,2,1,ACC_2-1,experiment,acc,Female,Right,24,1,0
885129,Right,5,Right,665,-6,0,Sound_1,None,y,5,1,ACC_2-1,experiment,acc,Female,Right,24,1,0
894491,Right,6,Right,766,53,37,Sound_1,Incongruent,n,NA,1,ACC_2-1,experiment,acc,Female,Right,24,1,0
904086,Left,8,Left,869,-2,-2,None,None,y,8,1,ACC_2-1,experiment,acc,Female,Right,24,1,0
912583,Left,4,Left,831,-32,-33,None,None,y,4,1,ACC_2-1,experiment,acc,Female,Right,24,1,0
922409,Left,1,Left,766,32,33,Sound_1,None,n,NA,1,ACC_2-1,experiment,acc,Female,Right,24,1,0
932603,Right,5,Right,833,-12,17,None,None,n,NA,1,ACC_2-1,experiment,acc,Female,Right,24,1,0
944330,Left,2,Left,732,51,43,None,Incongruent,y,2,1,ACC_2-1,experiment,acc,Female,Right,24,1,0
952059,Left,7,Left,604,5,7,None,Incongruent,y,7,1,ACC_2-1,experiment,acc,Female,Right,24,1,0
962720,Left,7,Left,833,-31,-26,None,Congruent,n,NA,1,ACC_2-1,experiment,acc,Female,Right,24,1,0
976979,Left,6,Left,699,1,6,Sound_1,None,n,NA,1,ACC_2-1,experiment,acc,Female,Right,24,1,0
990272,Right,1,Right,565,-33,-6,Sound_1,None,y,1,1,ACC_2-1,experiment,acc,Female,Right,24,1,0
1006831,Right,3,Right,534,53,51,None,Congruent,y,3,1,ACC_2-1,experiment,acc,Female,Right,24,1,0
1014528,Right,3,Right,898,-1,9,None,Incongruent,n,NA,1,ACC_2-1,experiment,acc,Female,Right,24,1,0
1022156,Left,8,Left,833,-55,-38,Sound_1,None,n,NA,1,ACC_2-1,experiment,acc,Female,Right,24,1,0
1036915,Left,2,Left,769,48,48,Sound_1,Congruent,n,NA,1,ACC_2-1,experiment,acc,Female,Right,24,1,0
1044944,Right,7,Right,933,-2,0,None,Incongruent,y,7,1,ACC_2-1,experiment,acc,Female,Right,24,1,0
1052874,Left,5,Left,932,-53,-45,None,Incongruent,n,NA,1,ACC_2-1,experiment,acc,Female,Right,24,1,0
1061403,Left,7,Left,699,5,0,Sound_1,Congruent,n,NA,1,ACC_2-1,experiment,acc,Female,Right,24,1,0
1069100,Right,4,Right,764,51,43,Sound_1,Congruent,n,NA,1,ACC_2-1,experiment,acc,Female,Right,24,1,0
1089123,Right,6,Right,838,-56,-39,None,Congruent,n,NA,1,ACC_2-1,experiment,acc,Female,Right,24,1,0
1097387,Left,3,Left,834,-6,-7,Sound_1,None,n,NA,1,ACC_2-1,experiment,acc,Female,Right,24,1,0
1110845,Right,7,Right,772,37,43,Sound_1,Congruent,n,NA,1,ACC_2-1,experiment,acc,Female,Right,24,1,0
1118542,Right,1,Right,464,2,7,Sound_1,Congruent,y,1,1,ACC_2-1,experiment,acc,Female,Right,24,1,0
1132168,Left,6,Left,970,37,37,Sound_1,Incongruent,n,NA,1,ACC_2-1,experiment,acc,Female,Right,24,1,0
1142930,Left,1,Left,799,-10,-9,None,Incongruent,y,1,1,ACC_2-1,experiment,acc,Female,Right,24,1,0
1150727,Right,3,Right,666,56,59,None,None,n,NA,1,ACC_2-1,experiment,acc,Female,Right,24,1,0
1163786,Left,6,Left,731,-36,-37,Sound_1,None,y,6,1,ACC_2-1,experiment,acc,Female,Right,24,1,0
1174314,Right,4,Right,832,12,28,Sound_1,None,n,NA,1,ACC_2-1,experiment,acc,Female,Right,24,1,0
1182143,Right,6,Right,700,47,57,None,Congruent,y,6,1,ACC_2-1,experiment,acc,Female,Right,24,1,0
1189939,Right,2,Right,565,2,19,Sound_1,None,y,2,1,ACC_2-1,experiment,acc,Female,Right,24,1,0
1205498,Right,3,Right,700,-62,-61,None,Incongruent,y,3,1,ACC_2-1,experiment,acc,Female,Right,24,1,0
1218458,Right,8,Right,568,38,44,Sound_1,Congruent,y,8,1,ACC_2-1,experiment,acc,Female,Right,24,1,0
1228020,Right,1,Right,702,-58,-61,None,Congruent,y,1,1,ACC_2-1,experiment,acc,Female,Right,24,1,0
1238014,Left,5,Left,967,-3,-6,None,Congruent,n,NA,1,ACC_2-1,experiment,acc,Female,Right,24,1,0
1248675,Left,3,Left,866,47,27,Sound_1,Congruent,y,3,1,ACC_2-1,experiment,acc,Female,Right,24,1,0
1258870,Left,2,Left,899,-56,-58,None,Incongruent,n,NA,1,ACC_2-1,experiment,acc,Female,Right,24,1,0
1268331,Left,7,Left,698,58,66,Sound_1,Incongruent,y,7,1,ACC_2-1,experiment,acc,Female,Right,24,1,0
1278426,Left,4,Left,664,2,3,Sound_1,None,y,4,1,ACC_2-1,experiment,acc,Female,Right,24,1,0
1286421,Left,6,Left,865,-52,-61,None,None,n,NA,1,ACC_2-1,experiment,acc,Female,Right,24,1,0
1299214,Right,3,Right,631,6,5,Sound_1,Incongruent,y,3,1,ACC_2-1,experiment,acc,Female,Right,24,1,0
1306811,Right,2,Right,735,-55,-46,Sound_1,Congruent,n,NA,1,ACC_2-1,experiment,acc,Female,Right,24,1,0
1315972,Left,1,Left,866,10,6,None,None,n,NA,1,ACC_2-1,experiment,acc,Female,Right,24,1,0
1324901,Left,4,None,1001,-44,-29,Sound_1,Incongruent,n,NA,1,ACC_2-1,experiment,acc,Female,Right,24,0,1
1334562,Left,4,Left,766,7,-1,None,Incongruent,y,4,1,ACC_2-1,experiment,acc,Female,Right,24,1,0
1342325,Left,5,Left,933,61,67,None,None,n,NA,1,ACC_2-1,experiment,acc,Female,Right,24,1,0
1350255,Right,5,Right,698,4,0,Sound_1,Incongruent,n,NA,1,ACC_2-1,experiment,acc,Female,Right,24,1,0
1364979,Left,5,Left,699,-46,-56,None,Congruent,y,5,1,ACC_2-1,experiment,acc,Female,Right,24,1,0
1378105,Left,4,None,1001,41,34,None,Incongruent,n,NA,1,ACC_2-1,experiment,acc,Female,Right,24,0,1
1389599,Left,4,Left,632,0,3,Sound_1,Congruent,n,NA,1,ACC_2-1,experiment,acc,Female,Right,24,1,0
1401160,Left,2,Left,664,41,33,Sound_1,None,y,2,1,ACC_2-1,experiment,acc,Female,Right,24,1,0
1409055,Left,3,Left,801,5,1,None,Incongruent,n,NA,1,ACC_2-1,experiment,acc,Female,Right,24,1,0
1416317,Left,8,Left,699,-55,-60,None,Incongruent,n,NA,1,ACC_2-1,experiment,acc,Female,Right,24,1,0
1428610,Right,6,None,1001,48,39,None,None,n,NA,1,ACC_2-1,experiment,acc,Female,Right,24,0,1
1438806,Right,7,Right,764,-45,-35,Sound_1,None,y,7,1,ACC_2-1,experiment,acc,Female,Right,24,1,0
1446601,Right,3,Right,466,1,0,None,None,y,3,1,ACC_2-1,experiment,acc,Female,Right,24,1,0
1454163,Right,7,Right,733,43,35,None,Incongruent,n,NA,1,ACC_2-1,experiment,acc,Female,Right,24,1,0
1461360,Right,8,Right,637,-3,-2,None,Congruent,y,8,1,ACC_2-1,experiment,acc,Female,Right,24,1,0
1468989,Right,7,Right,498,44,42,Sound_1,Incongruent,y,7,1,ACC_2-1,experiment,acc,Female,Right,24,1,0
1478849,Right,4,Right,931,-41,-35,Sound_1,None,y,4,1,ACC_2-1,experiment,acc,Female,Right,24,1,0
1492242,Left,4,None,1001,42,35,Sound_1,None,n,NA,1,ACC_2-1,experiment,acc,Female,Right,24,0,1
1499640,Left,5,Left,731,2,1,Sound_1,Incongruent,n,NA,1,ACC_2-1,experiment,acc,Female,Right,24,1,0
1514263,Left,8,Left,732,-52,-60,Sound_1,Incongruent,y,8,1,ACC_2-1,experiment,acc,Female,Right,24,1,0
1532355,Left,6,Left,698,37,34,Sound_1,Congruent,y,6,1,ACC_2-1,experiment,acc,Female,Right,24,1,0
1541615,Left,8,Left,766,7,7,Sound_1,Incongruent,n,NA,1,ACC_2-1,experiment,acc,Female,Right,24,1,0
1549378,Right,1,None,1001,-46,-46,None,None,n,NA,1,ACC_2-1,experiment,acc,Female,Right,24,0,1
1562504,Right,4,Right,866,58,44,None,Incongruent,n,NA,1,ACC_2-1,experiment,acc,Female,Right,24,1,0
1570002,Right,6,Right,763,3,0,Sound_1,Congruent,n,NA,1,ACC_2-1,experiment,acc,Female,Right,24,1,0
1578461,Right,4,Right,631,53,53,Sound_1,Incongruent,y,4,1,ACC_2-1,experiment,acc,Female,Right,24,1,0
1588521,Right,5,Right,869,-57,-50,Sound_1,Congruent,n,NA,1,ACC_2-1,experiment,acc,Female,Right,24,1,0
1597917,Left,6,Left,599,12,10,None,Congruent,y,6,1,ACC_2-1,experiment,acc,Female,Right,24,1,0
1605779,Right,3,Right,465,46,48,Sound_1,None,y,3,1,ACC_2-1,experiment,acc,Female,Right,24,1,0
1615240,Right,8,Right,865,-40,-38,None,None,y,8,1,ACC_2-1,experiment,acc,Female,Right,24,1,0
1625501,Right,2,Right,732,37,39,None,Congruent,n,NA,1,ACC_2-1,experiment,acc,Female,Right,24,1,0
1633396,Right,1,Right,733,-6,-2,None,Congruent,n,NA,1,ACC_2-1,experiment,acc,Female,Right,24,1,0
1640593,Left,7,Left,597,-42,-41,None,None,y,7,1,ACC_2-1,experiment,acc,Female,Right,24,1,0
1648454,Left,8,Left,632,-2,-2,Sound_1,Congruent,y,8,1,ACC_2-1,experiment,acc,Female,Right,24,1,0
1656083,Right,1,Right,499,43,45,None,None,y,1,1,ACC_2-1,experiment,acc,Female,Right,24,1,0
1665579,Left,5,Left,663,-34,-37,Sound_1,None,n,NA,1,ACC_2-1,experiment,acc,Female,Right,24,1,0
1673373,Right,7,Right,565,1,2,Sound_1,Congruent,y,7,1,ACC_2-1,experiment,acc,Female,Right,24,1,0
1681103,Right,5,Right,700,40,42,None,Congruent,n,NA,1,ACC_2-1,experiment,acc,Female,Right,24,1,0
1688565,Left,2,Left,665,10,0,None,None,y,2,1,ACC_2-1,experiment,acc,Female,Right,24,1,0
1696395,Right,3,Right,865,-32,-10,None,Congruent,n,NA,1,ACC_2-1,experiment,acc,Female,Right,24,1,0
1709054,Right,4,Right,505,46,43,None,None,y,4,1,ACC_2-1,experiment,acc,Female,Right,24,1,0
1716750,Left,1,Left,634,-3,1,Sound_1,None,y,1,1,ACC_2-1,experiment,acc,Female,Right,24,1,0
1726079,Left,3,Left,737,-48,-39,None,None,n,NA,1,ACC_2-1,experiment,acc,Female,Right,24,1,0
1736039,Left,3,None,1001,46,34,None,Congruent,n,NA,1,ACC_2-1,experiment,acc,Female,Right,24,0,1
1745003,Left,1,Left,763,-40,-43,Sound_1,Congruent,y,1,1,ACC_2-1,experiment,acc,Female,Right,24,1,0
1755429,Right,1,Right,699,6,11,Sound_1,None,n,NA,1,ACC_2-1,experiment,acc,Female,Right,24,1,0
1763091,Right,5,Right,666,37,25,Sound_1,None,n,NA,1,ACC_2-1,experiment,acc,Female,Right,24,1,0
1770820,Left,7,Left,732,0,0,None,None,n,NA,1,ACC_2-1,experiment,acc,Female,Right,24,1,0
1781081,Left,1,None,1001,54,45,None,Congruent,y,1,1,ACC_2-1,experiment,acc,Female,Right,24,0,1
1790476,Left,1,Left,732,-52,-51,None,None,y,1,1,ACC_2-1,experiment,acc,Female,Right,24,1,0
1799038,Left,8,Left,699,0,0,None,Congruent,n,NA,1,ACC_2-1,experiment,acc,Female,Right,24,1,0
1806235,Left,6,Left,499,-41,-54,None,Incongruent,y,6,1,ACC_2-1,experiment,acc,Female,Right,24,1,0
1815696,Right,1,Right,868,41,42,None,Incongruent,n,NA,1,ACC_2-1,experiment,acc,Female,Right,24,1,0
1823692,Left,5,Left,566,1,3,None,None,y,5,1,ACC_2-1,experiment,acc,Female,Right,24,1,0
1832755,Right,7,Right,698,40,38,None,None,y,7,1,ACC_2-1,experiment,acc,Female,Right,24,1,0
1842416,Right,3,Right,798,-36,-14,Sound_1,Congruent,y,3,1,ACC_2-1,experiment,acc,Female,Right,24,1,0
1850148,Right,2,Right,733,0,1,Sound_1,Incongruent,n,NA,1,ACC_2-1,experiment,acc,Female,Right,24,1,0
1857875,Right,2,None,1001,-44,-33,None,Incongruent,n,NA,1,ACC_2-1,experiment,acc,Female,Right,24,0,1
1870537,Right,6,Right,762,1,3,Sound_1,Incongruent,y,6,1,ACC_2-1,experiment,acc,Female,Right,24,1,0
1878997,Right,4,None,1001,-53,-43,None,None,n,NA,1,ACC_2-1,experiment,acc,Female,Right,24,0,1
1894489,Right,5,Right,599,45,45,Sound_1,Congruent,y,5,1,ACC_2-1,experiment,acc,Female,Right,24,1,0
1904084,Right,4,Right,633,-49,-43,None,Congruent,y,4,1,ACC_2-1,experiment,acc,Female,Right,24,1,0
1915078,Left,6,Left,832,47,36,None,None,y,6,1,ACC_2-1,experiment,acc,Female,Right,24,1,0
1927504,Left,3,Left,667,-47,-45,Sound_1,Congruent,n,NA,1,ACC_2-1,experiment,acc,Female,Right,24,1,0
1935800,Left,5,Left,632,13,11,Sound_1,Congruent,y,5,1,ACC_2-1,experiment,acc,Female,Right,24,1,0
1947428,Left,3,Left,698,-45,-36,None,Incongruent,y,3,1,ACC_2-1,experiment,acc,Female,Right,24,1,0
1958122,Left,8,Left,799,47,32,Sound_1,None,y,8,1,ACC_2-1,experiment,acc,Female,Right,24,1,0
1965918,Right,4,Right,568,-4,2,Sound_1,Congruent,y,4,1,ACC_2-1,experiment,acc,Female,Right,24,1,0
1973482,Right,5,Right,599,-50,-41,None,None,y,5,1,ACC_2-1,experiment,acc,Female,Right,24,1,0
1982543,Left,6,Left,535,2,4,Sound_1,Incongruent,y,6,1,ACC_2-1,experiment,acc,Female,Right,24,1,0
4164,Left,8,None,1001,-36,-33,None,Incongruent,n,NA,1,ACC_4-1,experiment,acc,Female,Right,21,0,1
11027,Right,1,Right,798,1,1,None,Congruent,n,NA,1,ACC_4-1,experiment,acc,Female,Right,21,1,0
18622,Left,1,Left,697,-41,-16,Sound_1,Congruent,y,1,1,ACC_4-1,experiment,acc,Female,Right,21,1,0
30647,Right,8,Right,601,51,40,None,Incongruent,y,8,1,ACC_4-1,experiment,acc,Female,Right,21,1,0
38209,Left,8,Left,664,5,6,Sound_1,Congruent,y,8,1,ACC_4-1,experiment,acc,Female,Right,21,1,0
45870,Right,1,Right,932,33,31,None,Incongruent,n,NA,1,ACC_4-1,experiment,acc,Female,Right,21,1,0
56663,Right,4,Right,666,5,4,Sound_1,None,n,NA,1,ACC_4-1,experiment,acc,Female,Right,21,1,0
64325,Left,2,Left,633,-50,-47,None,Congruent,y,2,1,ACC_4-1,experiment,acc,Female,Right,21,1,0
71954,Left,2,Left,597,11,2,Sound_1,Congruent,y,2,1,ACC_4-1,experiment,acc,Female,Right,21,1,0
79748,Right,4,Left,665,43,24,Sound_1,Incongruent,y,4,1,ACC_4-1,experiment,acc,Female,Right,21,0,1
87876,Left,6,Left,566,8,5,None,Congruent,y,6,1,ACC_4-1,experiment,acc,Female,Right,21,1,0
99304,Right,2,Right,597,57,57,Sound_1,None,n,NA,1,ACC_4-1,experiment,acc,Female,Right,21,1,0
111528,Left,6,Left,498,-47,-42,None,Incongruent,y,6,1,ACC_4-1,experiment,acc,Female,Right,21,1,0
119058,Right,5,Right,596,0,0,Sound_1,None,y,5,1,ACC_4-1,experiment,acc,Female,Right,21,1,0
126652,Right,4,Right,498,46,44,None,None,y,4,1,ACC_4-1,experiment,acc,Female,Right,21,1,0
163394,Left,3,Left,931,-38,-31,None,None,n,NA,1,ACC_4-1,experiment,acc,Female,Right,21,1,0
172554,Right,1,Right,632,4,7,Sound_1,None,n,NA,1,ACC_4-1,experiment,acc,Female,Right,21,1,0
180816,Right,8,Right,664,-35,-30,Sound_1,Incongruent,y,8,1,ACC_4-1,experiment,acc,Female,Right,21,1,0
190143,Left,3,Left,665,1,-2,None,Congruent,y,3,1,ACC_4-1,experiment,acc,Female,Right,21,1,0
197804,Right,4,Right,599,-45,-42,None,Congruent,y,4,1,ACC_4-1,experiment,acc,Female,Right,21,1,0
207398,Left,1,Left,599,46,39,None,Congruent,y,1,1,ACC_4-1,experiment,acc,Female,Right,21,1,0
216993,Right,6,Right,664,-49,-45,None,Incongruent,y,6,1,ACC_4-1,experiment,acc,Female,Right,21,1,0
226653,Left,5,Left,665,36,35,Sound_1,Congruent,n,NA,1,ACC_4-1,experiment,acc,Female,Right,21,1,0
237546,Right,2,Right,632,-39,-30,None,Incongruent,n,NA,1,ACC_4-1,experiment,acc,Female,Right,21,1,0
246640,Left,5,Left,733,37,38,None,None,n,NA,1,ACC_4-1,experiment,acc,Female,Right,21,1,0
255834,Left,4,Left,532,-35,-33,None,None,y,4,1,ACC_4-1,experiment,acc,Female,Right,21,1,0
266460,Right,1,Right,632,31,32,Sound_1,Congruent,n,NA,1,ACC_4-1,experiment,acc,Female,Right,21,1,0
276089,Right,5,Right,933,-38,-31,None,Incongruent,n,NA,1,ACC_4-1,experiment,acc,Female,Right,21,1,0
283649,Left,5,Left,566,5,1,Sound_1,Congruent,y,5,1,ACC_4-1,experiment,acc,Female,Right,21,1,0
291211,Right,1,Right,699,-32,-29,None,None,n,NA,1,ACC_4-1,experiment,acc,Female,Right,21,1,0
303270,Left,7,Left,567,-1,0,None,Incongruent,y,7,1,ACC_4-1,experiment,acc,Female,Right,21,1,0
310799,Right,3,Right,632,34,34,None,None,n,NA,1,ACC_4-1,experiment,acc,Female,Right,21,1,0
319993,Right,8,Right,770,-50,-49,None,Incongruent,n,NA,1,ACC_4-1,experiment,acc,Female,Right,21,1,0
332085,Left,3,Left,631,30,30,Sound_1,Congruent,y,3,1,ACC_4-1,experiment,acc,Female,Right,21,1,0
351306,Right,4,Right,733,-39,-35,None,None,n,NA,1,ACC_4-1,experiment,acc,Female,Right,21,1,0
358501,Right,6,Right,633,3,1,None,None,y,6,1,ACC_4-1,experiment,acc,Female,Right,21,1,0
366130,Right,6,Right,698,-47,-44,Sound_1,None,n,NA,1,ACC_4-1,experiment,acc,Female,Right,21,1,0
373792,Right,4,Right,565,2,4,None,Incongruent,y,4,1,ACC_4-1,experiment,acc,Female,Right,21,1,0
381353,Left,2,Left,699,-33,-30,Sound_1,None,n,NA,1,ACC_4-1,experiment,acc,Female,Right,21,1,0
388981,Right,2,Right,732,0,1,Sound_1,Incongruent,n,NA,1,ACC_4-1,experiment,acc,Female,Right,21,1,0
397643,Left,7,Left,832,37,33,None,Incongruent,n,NA,1,ACC_4-1,experiment,acc,Female,Right,21,1,0
404940,Left,8,Left,797,3,1,Sound_1,Incongruent,n,NA,1,ACC_4-1,experiment,acc,Female,Right,21,1,0
413900,Left,8,Left,631,39,32,Sound_1,None,y,8,1,ACC_4-1,experiment,acc,Female,Right,21,1,0
421528,Left,7,Left,665,0,2,None,None,n,NA,1,ACC_4-1,experiment,acc,Female,Right,21,1,0
428689,Right,5,Right,733,-36,-28,Sound_1,Congruent,n,NA,1,ACC_4-1,experiment,acc,Female,Right,21,1,0
439949,Left,6,Left,700,6,3,Sound_1,Incongruent,y,6,1,ACC_4-1,experiment,acc,Female,Right,21,1,0
449843,Right,7,Right,631,-35,-25,Sound_1,None,y,7,1,ACC_4-1,experiment,acc,Female,Right,21,1,0
459470,Left,4,None,1001,46,43,None,Incongruent,n,NA,1,ACC_4-1,experiment,acc,Female,Right,21,0,1
466366,Right,7,Right,699,-1,8,None,Incongruent,y,7,1,ACC_4-1,experiment,acc,Female,Right,21,1,0
474061,Left,7,Left,898,-41,-36,Sound_1,Incongruent,n,NA,1,ACC_4-1,experiment,acc,Female,Right,21,1,0
481956,Right,1,Right,566,7,7,None,Incongruent,y,1,1,ACC_4-1,experiment,acc,Female,Right,21,1,0
489518,Right,1,Right,498,-40,-36,Sound_1,None,y,1,1,ACC_4-1,experiment,acc,Female,Right,21,1,0
496980,Left,7,Left,698,1,1,Sound_1,Congruent,n,NA,1,ACC_4-1,experiment,acc,Female,Right,21,1,0
504675,Right,2,Right,801,36,38,None,Congruent,n,NA,1,ACC_4-1,experiment,acc,Female,Right,21,1,0
511970,Left,5,Left,732,1,4,None,Congruent,n,NA,1,ACC_4-1,experiment,acc,Female,Right,21,1,0
519200,Left,4,Left,631,-48,-45,Sound_1,Congruent,y,4,1,ACC_4-1,experiment,acc,Female,Right,21,1,0
528826,Right,3,Right,499,38,38,Sound_1,None,y,3,1,ACC_4-1,experiment,acc,Female,Right,21,1,0
538354,Left,2,Left,598,-45,-43,Sound_1,Incongruent,y,2,1,ACC_4-1,experiment,acc,Female,Right,21,1,0
547948,Left,2,Left,598,38,32,Sound_1,None,y,2,1,ACC_4-1,experiment,acc,Female,Right,21,1,0
555577,Left,8,Left,699,3,3,None,Congruent,n,NA,1,ACC_4-1,experiment,acc,Female,Right,21,1,0
562774,Left,2,Left,765,-43,-42,None,Incongruent,n,NA,1,ACC_4-1,experiment,acc,Female,Right,21,1,0
570035,Right,3,Right,665,7,7,Sound_1,Congruent,n,NA,1,ACC_4-1,experiment,acc,Female,Right,21,1,0
577932,Right,2,Right,564,34,31,None,Incongruent,y,2,1,ACC_4-1,experiment,acc,Female,Right,21,1,0
586326,Left,4,Left,666,6,4,Sound_1,Congruent,n,NA,1,ACC_4-1,experiment,acc,Female,Right,21,1,0
594388,Left,7,Left,565,-52,-39,Sound_1,Congruent,y,7,1,ACC_4-1,experiment,acc,Female,Right,21,1,0
605948,Left,8,Left,733,31,30,Sound_1,Congruent,n,NA,1,ACC_4-1,experiment,acc,Female,Right,21,1,0
623304,Left,1,Left,732,-45,-43,Sound_1,Incongruent,n,NA,1,ACC_4-1,experiment,acc,Female,Right,21,1,0
631066,Left,7,Left,564,7,3,Sound_1,None,y,7,1,ACC_4-1,experiment,acc,Female,Right,21,1,0
645325,Left,1,Left,798,32,32,None,Incongruent,n,NA,1,ACC_4-1,experiment,acc,Female,Right,21,1,0
654651,Left,5,Left,599,-43,-41,None,Incongruent,n,NA,1,ACC_4-1,experiment,acc,Female,Right,21,1,0
661713,Left,2,Left,732,-1,0,None,None,y,2,1,ACC_4-1,experiment,acc,Female,Right,21,1,0
669409,Right,3,Right,698,-43,-42,Sound_1,None,n,NA,1,ACC_4-1,experiment,acc,Female,Right,21,1,0
679102,Right,1,Right,465,40,38,None,None,y,1,1,ACC_4-1,experiment,acc,Female,Right,21,1,0
688563,Right,4,Right,631,-45,-40,Sound_1,None,y,4,1,ACC_4-1,experiment,acc,Female,Right,21,1,0
697592,Right,3,Right,931,-8,0,None,Incongruent,n,NA,1,ACC_4-1,experiment,acc,Female,Right,21,1,0
705019,Left,4,Left,666,-52,-49,None,Congruent,n,NA,1,ACC_4-1,experiment,acc,Female,Right,21,1,0
714181,Left,7,Left,533,45,42,Sound_1,Incongruent,y,7,1,ACC_4-1,experiment,acc,Female,Right,21,1,0
723708,Left,3,Left,599,-49,-49,None,Incongruent,y,3,1,ACC_4-1,experiment,acc,Female,Right,21,1,0
733303,Left,2,Left,731,38,32,Sound_1,Congruent,n,NA,1,ACC_4-1,experiment,acc,Female,Right,21,1,0
741030,Right,3,Right,564,0,2,Sound_1,Incongruent,y,3,1,ACC_4-1,experiment,acc,Female,Right,21,1,0
748591,Left,6,Left,599,-49,-46,Sound_1,Congruent,n,NA,1,ACC_4-1,experiment,acc,Female,Right,21,1,0
756186,Right,5,Right,834,3,1,None,None,n,NA,1,ACC_4-1,experiment,acc,Female,Right,21,1,0
763516,Right,6,Left,666,30,28,None,None,n,NA,1,ACC_4-1,experiment,acc,Female,Right,21,0,1
772777,Right,6,Right,832,-3,2,None,Incongruent,n,NA,1,ACC_4-1,experiment,acc,Female,Right,21,1,0
780106,Left,1,Left,732,-41,-44,None,Congruent,n,NA,1,ACC_4-1,experiment,acc,Female,Right,21,1,0
787302,Right,8,Right,532,1,0,None,Congruent,y,8,1,ACC_4-1,experiment,acc,Female,Right,21,1,0
794830,Right,6,Right,899,-36,-37,None,Congruent,n,NA,1,ACC_4-1,experiment,acc,Female,Right,21,1,0
802360,Left,1,Left,731,0,0,None,None,n,NA,1,ACC_4-1,experiment,acc,Female,Right,21,1,0
809888,Right,7,Right,636,-36,-34,None,Congruent,y,7,1,ACC_4-1,experiment,acc,Female,Right,21,1,0
817550,Right,8,Right,602,-2,0,Sound_1,Incongruent,n,NA,1,ACC_4-1,experiment,acc,Female,Right,21,1,0
832641,Left,1,Left,634,42,42,Sound_1,Incongruent,y,1,1,ACC_4-1,experiment,acc,Female,Right,21,1,0
840271,Right,7,Right,733,0,1,None,Congruent,n,NA,1,ACC_4-1,experiment,acc,Female,Right,21,1,0
849597,Left,4,Left,634,33,33,None,Congruent,y,4,1,ACC_4-1,experiment,acc,Female,Right,21,1,0
859192,Left,6,Left,398,-49,-51,Sound_1,None,y,6,1,ACC_4-1,experiment,acc,Female,Right,21,1,0
868552,Right,3,Right,599,51,52,Sound_1,Incongruent,n,NA,1,ACC_4-1,experiment,acc,Female,Right,21,1,0
876114,Left,2,Left,699,-3,-2,Sound_1,Incongruent,n,NA,1,ACC_4-1,experiment,acc,Female,Right,21,1,0
883809,Right,8,Right,601,42,33,Sound_1,Congruent,y,8,1,ACC_4-1,experiment,acc,Female,Right,21,1,0
893403,Left,5,Left,398,-36,-37,Sound_1,Incongruent,y,5,1,ACC_4-1,experiment,acc,Female,Right,21,1,0
900832,Right,7,Right,732,1,0,Sound_1,None,n,NA,1,ACC_4-1,experiment,acc,Female,Right,21,1,0
908560,Right,4,Right,766,-42,-37,Sound_1,Incongruent,n,NA,1,ACC_4-1,experiment,acc,Female,Right,21,1,0
918354,Left,2,Left,733,36,34,None,None,n,NA,1,ACC_4-1,experiment,acc,Female,Right,21,1,0
925616,Left,3,Left,999,2,2,None,Incongruent,n,NA,1,ACC_4-1,experiment,acc,Female,Right,21,1,0
933479,Left,8,Left,632,41,41,None,None,n,NA,1,ACC_4-1,experiment,acc,Female,Right,21,1,0
940708,Right,5,Right,635,0,4,None,Congruent,y,5,1,ACC_4-1,experiment,acc,Female,Right,21,1,0
948303,Right,5,Right,698,50,51,None,Incongruent,y,5,1,ACC_4-1,experiment,acc,Female,Right,21,1,0
955998,Right,6,Right,698,0,3,Sound_1,Incongruent,y,6,1,ACC_4-1,experiment,acc,Female,Right,21,1,0
963694,Right,7,Right,632,41,44,Sound_1,Congruent,n,NA,1,ACC_4-1,experiment,acc,Female,Right,21,1,0
973321,Left,8,Left,731,-51,-50,Sound_1,Incongruent,y,8,1,ACC_4-1,experiment,acc,Female,Right,21,1,0
983049,Right,4,Right,737,29,31,None,Incongruent,n,NA,1,ACC_4-1,experiment,acc,Female,Right,21,1,0
994775,Right,1,Right,565,-44,-41,None,Congruent,y,1,1,ACC_4-1,experiment,acc,Female,Right,21,1,0
1002405,Left,4,Left,698,1,1,None,Incongruent,y,4,1,ACC_4-1,experiment,acc,Female,Right,21,1,0
1010099,Right,7,Right,768,37,29,None,Incongruent,n,NA,1,ACC_4-1,experiment,acc,Female,Right,21,1,0
1020260,Left,1,Right,467,-3,-1,None,Incongruent,y,1,1,ACC_4-1,experiment,acc,Female,Right,21,0,1
1027589,Right,2,Right,531,-45,-24,Sound_1,Incongruent,y,2,1,ACC_4-1,experiment,acc,Female,Right,21,1,0
1038149,Left,3,Left,733,4,-2,Sound_1,None,n,NA,1,ACC_4-1,experiment,acc,Female,Right,21,1,0
1045845,Left,7,Left,599,54,50,Sound_1,None,n,NA,1,ACC_4-1,experiment,acc,Female,Right,21,1,0
1055440,Left,6,Left,632,-53,-55,None,None,n,NA,1,ACC_4-1,experiment,acc,Female,Right,21,1,0
1064535,Left,5,Left,565,39,37,Sound_1,None,y,5,1,ACC_4-1,experiment,acc,Female,Right,21,1,0
1072097,Left,6,Left,599,1,2,Sound_1,None,n,NA,1,ACC_4-1,experiment,acc,Female,Right,21,1,0
1079693,Right,5,Right,566,41,41,Sound_1,Congruent,y,5,1,ACC_4-1,experiment,acc,Female,Right,21,1,0
1089254,Right,2,Right,599,-45,-44,Sound_1,Congruent,n,NA,1,ACC_4-1,experiment,acc,Female,Right,21,1,0
1096949,Right,8,Right,632,3,0,None,None,n,NA,1,ACC_4-1,experiment,acc,Female,Right,21,1,0
1104078,Left,3,Left,633,37,34,Sound_1,Incongruent,n,NA,1,ACC_4-1,experiment,acc,Female,Right,21,1,0
1113707,Left,8,Left,564,-42,-42,None,Congruent,y,8,1,ACC_4-1,experiment,acc,Female,Right,21,1,0
1121268,Left,5,Left,433,-1,-3,None,None,y,5,1,ACC_4-1,experiment,acc,Female,Right,21,1,0
1128697,Left,4,Left,733,-45,-45,Sound_1,Incongruent,n,NA,1,ACC_4-1,experiment,acc,Female,Right,21,1,0
1140190,Left,6,Left,799,32,22,None,Congruent,n,NA,1,ACC_4-1,experiment,acc,Female,Right,21,1,0
1150117,Left,7,Left,401,-47,-44,None,None,y,7,1,ACC_4-1,experiment,acc,Female,Right,21,1,0
1157512,Right,8,Right,535,0,1,Sound_1,None,y,8,1,ACC_4-1,experiment,acc,Female,Right,21,1,0
1166707,Left,2,Left,831,29,29,None,Incongruent,y,2,1,ACC_4-1,experiment,acc,Female,Right,21,1,0
1184662,Left,2,Left,699,-1,4,None,Congruent,n,NA,1,ACC_4-1,experiment,acc,Female,Right,21,1,0
1192357,Left,5,Left,499,-33,-34,Sound_1,None,n,NA,1,ACC_4-1,experiment,acc,Female,Right,21,1,0
1199885,Right,4,Right,766,0,0,None,Congruent,n,NA,1,ACC_4-1,experiment,acc,Female,Right,21,1,0
1208114,Left,1,Left,565,-36,-38,None,None,y,1,1,ACC_4-1,experiment,acc,Female,Right,21,1,0
1220440,Left,7,Left,599,32,33,None,Congruent,y,7,1,ACC_4-1,experiment,acc,Female,Right,21,1,0
1228169,Left,4,Left,598,-2,2,Sound_1,None,y,4,1,ACC_4-1,experiment,acc,Female,Right,21,1,0
1238364,Right,2,Right,499,-45,-41,None,None,y,2,1,ACC_4-1,experiment,acc,Female,Right,21,1,0
1247858,Left,3,Left,599,37,35,None,None,y,3,1,ACC_4-1,experiment,acc,Female,Right,21,1,0
1257455,Right,8,Right,798,-41,-33,Sound_1,Congruent,n,NA,1,ACC_4-1,experiment,acc,Female,Right,21,1,0
1265282,Left,6,None,1001,2,-2,None,Incongruent,n,NA,1,ACC_4-1,experiment,acc,Female,Right,21,0,1
1272311,Right,6,Right,666,33,34,None,Congruent,y,6,1,ACC_4-1,experiment,acc,Female,Right,21,1,0
1281939,Left,8,Left,533,-45,-41,Sound_1,None,n,NA,1,ACC_4-1,experiment,acc,Female,Right,21,1,0
1291467,Right,5,Right,635,35,36,Sound_1,None,n,NA,1,ACC_4-1,experiment,acc,Female,Right,21,1,0
1301063,Right,3,Right,497,-42,-43,Sound_1,Congruent,y,3,1,ACC_4-1,experiment,acc,Female,Right,21,1,0
1310557,Right,5,Right,798,32,32,None,Congruent,n,NA,1,ACC_4-1,experiment,acc,Female,Right,21,1,0
1318119,Left,4,Left,766,0,1,None,None,n,NA,1,ACC_4-1,experiment,acc,Female,Right,21,1,0
1331745,Left,8,Left,567,33,32,None,Incongruent,y,8,1,ACC_4-1,experiment,acc,Female,Right,21,1,0
1339307,Right,5,Right,834,-4,-1,Sound_1,Incongruent,n,NA,1,ACC_4-1,experiment,acc,Female,Right,21,1,0
1347136,Left,1,Left,666,40,40,Sound_1,None,n,NA,1,ACC_4-1,experiment,acc,Female,Right,21,1,0
1354798,Right,4,Right,566,-15,0,Sound_1,Congruent,y,4,1,ACC_4-1,experiment,acc,Female,Right,21,1,0
1362362,Right,1,Right,732,-33,-31,Sound_1,Incongruent,n,NA,1,ACC_4-1,experiment,acc,Female,Right,21,1,0
1370057,Left,1,Left,630,0,-2,Sound_1,None,y,1,1,ACC_4-1,experiment,acc,Female,Right,21,1,0
1381017,Right,6,Left,597,-31,-30,Sound_1,Congruent,y,6,1,ACC_4-1,experiment,acc,Female,Right,21,0,1
1389111,Right,3,Right,498,-6,-4,None,None,y,3,1,ACC_4-1,experiment,acc,Female,Right,21,1,0
1398774,Right,4,Right,663,41,41,Sound_1,Congruent,n,NA,1,ACC_4-1,experiment,acc,Female,Right,21,1,0
1410466,Right,2,Right,564,4,2,Sound_1,None,y,2,1,ACC_4-1,experiment,acc,Female,Right,21,1,0
1421126,Left,7,Left,866,-54,-45,None,Congruent,n,NA,1,ACC_4-1,experiment,acc,Female,Right,21,1,0
1430456,Left,4,Left,730,40,34,Sound_1,None,n,NA,1,ACC_4-1,experiment,acc,Female,Right,21,1,0
1439084,Left,1,Left,732,3,4,Sound_1,Congruent,n,NA,1,ACC_4-1,experiment,acc,Female,Right,21,1,0
1446780,Left,6,Left,630,40,34,Sound_1,Congruent,y,6,1,ACC_4-1,experiment,acc,Female,Right,21,1,0
1454409,Right,7,Right,630,5,6,Sound_1,Congruent,y,7,1,ACC_4-1,experiment,acc,Female,Right,21,1,0
1462037,Right,3,Right,533,-53,-52,None,Incongruent,y,3,1,ACC_4-1,experiment,acc,Female,Right,21,1,0
1469566,Right,1,Right,464,4,3,Sound_1,Congruent,y,1,1,ACC_4-1,experiment,acc,Female,Right,21,1,0
1477295,Right,5,Right,797,-52,-52,Sound_1,Incongruent,y,5,1,ACC_4-1,experiment,acc,Female,Right,21,1,0
1487522,Right,2,Right,465,31,30,Sound_1,Congruent,y,2,1,ACC_4-1,experiment,acc,Female,Right,21,1,0
1495018,Left,5,Left,931,3,4,Sound_1,Incongruent,n,NA,1,ACC_4-1,experiment,acc,Female,Right,21,1,0
1502946,Right,3,Right,499,41,40,None,Congruent,y,3,1,ACC_4-1,experiment,acc,Female,Right,21,1,0
1510441,Right,2,Right,433,2,2,None,Congruent,y,2,1,ACC_4-1,experiment,acc,Female,Right,21,1,0
1517871,Right,1,Right,467,42,40,Sound_1,Incongruent,y,1,1,ACC_4-1,experiment,acc,Female,Right,21,1,0
1525300,Right,6,Left,565,4,4,Sound_1,Congruent,n,NA,1,ACC_4-1,experiment,acc,Female,Right,21,0,1
1533561,Right,7,Right,865,-48,-39,None,None,n,NA,1,ACC_4-1,experiment,acc,Female,Right,21,1,0
1542922,Left,5,Left,833,31,29,None,Incongruent,y,5,1,ACC_4-1,experiment,acc,Female,Right,21,1,0
1550751,Left,8,Left,633,-1,1,None,None,y,8,1,ACC_4-1,experiment,acc,Female,Right,21,1,0
1558380,Right,6,Right,632,40,40,Sound_1,None,y,6,1,ACC_4-1,experiment,acc,Female,Right,21,1,0
1567275,Left,3,Left,598,4,4,Sound_1,Incongruent,y,3,1,ACC_4-1,experiment,acc,Female,Right,21,1,0
1574838,Right,8,Right,531,37,37,Sound_1,None,n,NA,1,ACC_4-1,experiment,acc,Female,Right,21,1,0
1585831,Right,8,Right,598,-50,-51,None,None,y,8,1,ACC_4-1,experiment,acc,Female,Right,21,1,0
1596058,Left,6,Left,533,41,39,None,None,y,6,1,ACC_4-1,experiment,acc,Female,Right,21,1,0
1605554,Right,7,Right,735,-55,-52,Sound_1,Incongruent,n,NA,1,ACC_4-1,experiment,acc,Female,Right,21,1,0
1616247,Right,7,Right,599,34,33,Sound_1,Incongruent,y,7,1,ACC_4-1,experiment,acc,Female,Right,21,1,0
1625809,Left,5,Left,498,-38,-39,None,Congruent,y,5,1,ACC_4-1,experiment,acc,Female,Right,21,1,0
1638602,Right,8,Right,700,37,39,None,Congruent,n,NA,1,ACC_4-1,experiment,acc,Female,Right,21,1,0
1647796,Left,3,Left,565,-47,-45,Sound_1,None,y,3,1,ACC_4-1,experiment,acc,Female,Right,21,1,0
1657326,Right,6,Left,697,39,38,Sound_1,Incongruent,n,NA,1,ACC_4-1,experiment,acc,Female,Right,21,0,1
1665252,Right,2,Right,602,5,0,None,None,n,NA,1,ACC_4-1,experiment,acc,Female,Right,21,1,0
1672348,Left,6,Left,766,31,29,Sound_1,Incongruent,n,NA,1,ACC_4-1,experiment,acc,Female,Right,21,1,0
1683742,Right,3,Right,699,-50,-49,None,Congruent,n,NA,1,ACC_4-1,experiment,acc,Female,Right,21,1,0
1692936,Left,3,Left,668,32,31,None,Congruent,n,NA,1,ACC_4-1,experiment,acc,Female,Right,21,1,0
1702131,Right,5,Right,598,-46,-44,None,None,y,5,1,ACC_4-1,experiment,acc,Female,Right,21,1,0
1714723,Right,7,Right,632,41,37,None,None,y,7,1,ACC_4-1,experiment,acc,Female,Right,21,1,0
1724317,Left,3,Left,665,-40,-39,Sound_1,Congruent,n,NA,1,ACC_4-1,experiment,acc,Female,Right,21,1,0
1733911,Left,4,Left,667,39,40,Sound_1,Incongruent,y,4,1,ACC_4-1,experiment,acc,Female,Right,21,1,0
5396,Left,8,Left,666,33,33,Sound_1,Congruent,n,NA,1,ACC_6-1,experiment,acc,Female,Right,22,1,0
15056,Right,8,Right,599,-43,-39,Sound_1,Congruent,n,NA,1,ACC_6-1,experiment,acc,Female,Right,22,1,0
24650,Left,7,Left,831,40,39,Sound_1,Incongruent,y,7,1,ACC_6-1,experiment,acc,Female,Right,22,1,0
32445,Left,8,Left,798,3,4,Sound_1,Congruent,y,8,1,ACC_6-1,experiment,acc,Female,Right,22,1,0
40240,Right,2,Right,732,-37,-35,Sound_1,Congruent,n,NA,1,ACC_6-1,experiment,acc,Female,Right,22,1,0
47935,Right,5,Right,699,-4,-2,None,None,n,NA,1,ACC_6-1,experiment,acc,Female,Right,22,1,0
55097,Left,4,Left,599,-40,-40,None,Congruent,n,NA,1,ACC_6-1,experiment,acc,Female,Right,22,1,0
62192,Right,8,Right,799,0,-1,Sound_1,Incongruent,n,NA,1,ACC_6-1,experiment,acc,Female,Right,22,1,0
69987,Right,8,Right,631,39,40,Sound_1,Congruent,y,8,1,ACC_6-1,experiment,acc,Female,Right,22,1,0
80614,Left,8,Left,632,-34,-34,None,Congruent,y,8,1,ACC_6-1,experiment,acc,Female,Right,22,1,0
88243,Left,8,Left,631,2,2,None,None,y,8,1,ACC_6-1,experiment,acc,Female,Right,22,1,0
95871,Right,8,Right,532,55,54,Sound_1,None,n,NA,1,ACC_6-1,experiment,acc,Female,Right,22,1,0
103399,Right,3,Right,666,-1,-1,Sound_1,Congruent,n,NA,1,ACC_6-1,experiment,acc,Female,Right,22,1,0
111394,Right,1,Right,465,-51,-49,None,Congruent,y,1,1,ACC_6-1,experiment,acc,Female,Right,22,1,0
120854,Right,1,Right,632,40,38,Sound_1,Incongruent,y,1,1,ACC_6-1,experiment,acc,Female,Right,22,1,0
130482,Left,1,Left,732,-38,-41,None,Congruent,n,NA,1,ACC_6-1,experiment,acc,Female,Right,22,1,0
137777,Left,2,Left,765,4,0,Sound_1,Incongruent,n,NA,1,ACC_6-1,experiment,acc,Female,Right,22,1,0
145539,Right,3,Right,564,-47,-46,Sound_1,Congruent,y,3,1,ACC_6-1,experiment,acc,Female,Right,22,1,0
155101,Left,3,Left,696,41,37,Sound_1,Congruent,y,3,1,ACC_6-1,experiment,acc,Female,Right,22,1,0
162795,Left,4,Left,765,0,0,None,None,n,NA,1,ACC_6-1,experiment,acc,Female,Right,22,1,0
170056,Right,3,Right,499,-47,-48,Sound_1,None,n,NA,1,ACC_6-1,experiment,acc,Female,Right,22,1,0
179550,Right,1,Right,632,39,37,Sound_1,Congruent,n,NA,1,ACC_6-1,experiment,acc,Female,Right,22,1,0
187212,Left,7,Left,732,0,-2,Sound_1,Congruent,n,NA,1,ACC_6-1,experiment,acc,Female,Right,22,1,0
196806,Left,2,Left,697,-52,-47,Sound_1,Incongruent,y,2,1,ACC_6-1,experiment,acc,Female,Right,22,1,0
211596,Left,5,Left,999,55,48,None,None,n,NA,1,ACC_6-1,experiment,acc,Female,Right,22,1,0
219091,Right,6,Right,732,3,9,Sound_1,Congruent,n,NA,1,ACC_6-1,experiment,acc,Female,Right,22,1,0
226853,Right,4,Right,831,57,24,Sound_1,Incongruent,y,4,1,ACC_6-1,experiment,acc,Female,Right,22,1,0
236848,Right,6,Right,698,-51,-36,None,Congruent,n,NA,1,ACC_6-1,experiment,acc,Female,Right,22,1,0
244075,Left,4,Left,732,1,1,None,Incongruent,y,4,1,ACC_6-1,experiment,acc,Female,Right,22,1,0
256367,Right,7,Right,531,-50,-46,Sound_1,None,y,7,1,ACC_6-1,experiment,acc,Female,Right,22,1,0
265861,Right,5,Right,598,46,48,Sound_1,None,n,NA,1,ACC_6-1,experiment,acc,Female,Right,22,1,0
273456,Left,3,Left,598,1,0,Sound_1,None,n,NA,1,ACC_6-1,experiment,acc,Female,Right,22,1,0
281018,Left,4,Left,765,-48,-47,Sound_1,Incongruent,n,NA,1,ACC_6-1,experiment,acc,Female,Right,22,1,0
290778,Left,7,Left,699,41,35,None,Congruent,y,7,1,ACC_6-1,experiment,acc,Female,Right,22,1,0
298440,Left,1,Left,564,-1,0,Sound_1,None,y,1,1,ACC_6-1,experiment,acc,Female,Right,22,1,0
306002,Right,8,Right,499,-48,-48,None,None,y,8,1,ACC_6-1,experiment,acc,Female,Right,22,1,0
316028,Right,8,Right,632,53,51,None,Incongruent,y,8,1,ACC_6-1,experiment,acc,Female,Right,22,1,0
323657,Left,7,Left,599,1,3,None,Incongruent,y,7,1,ACC_6-1,experiment,acc,Female,Right,22,1,0
331252,Right,5,Right,766,-58,-57,None,Incongruent,n,NA,1,ACC_6-1,experiment,acc,Female,Right,22,1,0
338881,Right,1,Right,498,1,4,Sound_1,Congruent,y,1,1,ACC_6-1,experiment,acc,Female,Right,22,1,0
346377,Left,7,Left,564,-53,-52,Sound_1,Incongruent,n,NA,1,ACC_6-1,experiment,acc,Female,Right,22,1,0
353905,Left,5,Right,632,6,3,None,Congruent,n,NA,1,ACC_6-1,experiment,acc,Female,Right,22,0,1
360900,Left,6,Left,732,46,44,None,Congruent,n,NA,1,ACC_6-1,experiment,acc,Female,Right,22,1,0
368130,Right,1,Right,664,-1,0,Sound_1,None,n,NA,1,ACC_6-1,experiment,acc,Female,Right,22,1,0
375759,Left,1,Left,866,-52,-47,None,None,y,1,1,ACC_6-1,experiment,acc,Female,Right,22,1,0
385618,Left,7,None,1001,50,47,None,Incongruent,n,NA,1,ACC_6-1,experiment,acc,Female,Right,22,0,1
394512,Right,4,Right,732,-48,-42,None,Congruent,y,4,1,ACC_6-1,experiment,acc,Female,Right,22,1,0
404239,Left,4,Left,731,43,38,Sound_1,Incongruent,y,4,1,ACC_6-1,experiment,acc,Female,Right,22,1,0
413966,Right,7,Right,832,-45,-43,None,None,n,NA,1,ACC_6-1,experiment,acc,Female,Right,22,1,0
421295,Right,8,Right,532,4,6,Sound_1,None,y,8,1,ACC_6-1,experiment,acc,Female,Right,22,1,0
428823,Right,2,Right,531,50,48,Sound_1,Congruent,y,2,1,ACC_6-1,experiment,acc,Female,Right,22,1,0
438319,Right,4,Right,663,-43,-42,Sound_1,None,y,4,1,ACC_6-1,experiment,acc,Female,Right,22,1,0
445980,Left,6,Left,497,4,1,None,Congruent,y,6,1,ACC_6-1,experiment,acc,Female,Right,22,1,0
453474,Left,5,Left,799,37,34,None,Incongruent,y,5,1,ACC_6-1,experiment,acc,Female,Right,22,1,0
461235,Right,1,Right,567,0,3,None,Incongruent,y,1,1,ACC_6-1,experiment,acc,Female,Right,22,1,0
468731,Left,3,Left,698,-50,-49,None,Incongruent,y,3,1,ACC_6-1,experiment,acc,Female,Right,22,1,0
478425,Left,2,Left,698,41,37,None,Incongruent,y,2,1,ACC_6-1,experiment,acc,Female,Right,22,1,0
486353,Left,8,Left,832,-3,0,None,Congruent,n,NA,1,ACC_6-1,experiment,acc,Female,Right,22,1,0
493648,Right,8,Right,866,-50,-48,None,Incongruent,n,NA,1,ACC_6-1,experiment,acc,Female,Right,22,1,0
502977,Right,4,Right,698,39,38,Sound_1,Congruent,n,NA,1,ACC_6-1,experiment,acc,Female,Right,22,1,0
512670,Right,8,Right,599,-51,-49,Sound_1,Incongruent,y,8,1,ACC_6-1,experiment,acc,Female,Right,22,1,0
520266,Right,1,Right,798,5,6,None,Congruent,n,NA,1,ACC_6-1,experiment,acc,Female,Right,22,1,0
527528,Left,6,Left,465,-46,-47,Sound_1,None,y,6,1,ACC_6-1,experiment,acc,Female,Right,22,1,0
536988,Left,4,Left,666,48,47,Sound_1,None,n,NA,1,ACC_6-1,experiment,acc,Female,Right,22,1,0
544651,Left,8,Left,698,0,1,Sound_1,Incongruent,n,NA,1,ACC_6-1,experiment,acc,Female,Right,22,1,0
552346,Left,3,Left,630,-49,-44,Sound_1,None,y,3,1,ACC_6-1,experiment,acc,Female,Right,22,1,0
561940,Left,8,Left,663,52,49,Sound_1,None,y,8,1,ACC_6-1,experiment,acc,Female,Right,22,1,0
571600,Right,5,Right,731,-49,-48,Sound_1,Incongruent,y,5,1,ACC_6-1,experiment,acc,Female,Right,22,1,0
579331,Right,7,Right,696,3,6,None,Incongruent,y,7,1,ACC_6-1,experiment,acc,Female,Right,22,1,0
587023,Left,6,Left,699,56,54,None,None,y,6,1,ACC_6-1,experiment,acc,Female,Right,22,1,0
596750,Right,7,Right,866,-51,-50,Sound_1,Incongruent,n,NA,1,ACC_6-1,experiment,acc,Female,Right,22,1,0
604546,Right,4,Right,632,7,1,None,Incongruent,y,4,1,ACC_6-1,experiment,acc,Female,Right,22,1,0
612408,Right,7,Right,664,55,50,Sound_1,Incongruent,y,7,1,ACC_6-1,experiment,acc,Female,Right,22,1,0
622067,Left,4,Left,606,-47,-45,None,None,y,4,1,ACC_6-1,experiment,acc,Female,Right,22,1,0
629662,Left,6,Left,801,4,4,None,Incongruent,n,NA,1,ACC_6-1,experiment,acc,Female,Right,22,1,0
636992,Left,8,Left,730,-48,-45,Sound_1,None,n,NA,1,ACC_6-1,experiment,acc,Female,Right,22,1,0
646684,Right,6,Right,799,50,46,Sound_1,Incongruent,n,NA,1,ACC_6-1,experiment,acc,Female,Right,22,1,0
656445,Left,5,Left,867,-44,-42,None,Incongruent,n,NA,1,ACC_6-1,experiment,acc,Female,Right,22,1,0
665806,Left,2,Left,699,50,50,Sound_1,Congruent,n,NA,1,ACC_6-1,experiment,acc,Female,Right,22,1,0
675433,Left,5,Left,565,-44,-44,Sound_1,None,n,NA,1,ACC_6-1,experiment,acc,Female,Right,22,1,0
682964,Right,4,Right,697,7,6,None,Congruent,n,NA,1,ACC_6-1,experiment,acc,Female,Right,22,1,0
690157,Right,6,Right,630,52,48,Sound_1,None,y,6,1,ACC_6-1,experiment,acc,Female,Right,22,1,0
697819,Left,2,Left,564,-1,-1,Sound_1,Congruent,y,2,1,ACC_6-1,experiment,acc,Female,Right,22,1,0
705347,Left,6,Left,498,47,46,Sound_1,Congruent,y,6,1,ACC_6-1,experiment,acc,Female,Right,22,1,0
714842,Left,5,Left,629,-41,-39,Sound_1,Incongruent,y,5,1,ACC_6-1,experiment,acc,Female,Right,22,1,0
722603,Right,7,Right,632,10,8,None,Congruent,n,NA,1,ACC_6-1,experiment,acc,Female,Right,22,1,0
729731,Left,3,Left,598,-39,-38,Sound_1,Congruent,n,NA,1,ACC_6-1,experiment,acc,Female,Right,22,1,0
737259,Left,2,Left,532,5,1,None,None,y,2,1,ACC_6-1,experiment,acc,Female,Right,22,1,0
744789,Right,1,Right,464,49,47,None,None,y,1,1,ACC_6-1,experiment,acc,Female,Right,22,1,0
752249,Right,7,Right,633,0,1,Sound_1,None,n,NA,1,ACC_6-1,experiment,acc,Female,Right,22,1,0
759878,Right,3,Right,564,48,48,None,Congruent,y,3,1,ACC_6-1,experiment,acc,Female,Right,22,1,0
767439,Right,4,Right,532,1,5,Sound_1,None,n,NA,1,ACC_6-1,experiment,acc,Female,Right,22,1,0
774902,Left,3,Left,567,47,44,Sound_1,Incongruent,n,NA,1,ACC_6-1,experiment,acc,Female,Right,22,1,0
782463,Left,6,Left,597,3,4,Sound_1,Incongruent,y,6,1,ACC_6-1,experiment,acc,Female,Right,22,1,0
790092,Left,8,Right,663,-33,-39,Sound_1,Incongruent,y,8,1,ACC_6-1,experiment,acc,Female,Right,22,0,1
797620,Right,2,Right,597,2,3,Sound_1,None,y,2,1,ACC_6-1,experiment,acc,Female,Right,22,1,0
805182,Left,1,Left,832,42,40,None,Incongruent,n,NA,1,ACC_6-1,experiment,acc,Female,Right,22,1,0
814476,Right,1,Right,832,-46,-44,Sound_1,Incongruent,n,NA,1,ACC_6-1,experiment,acc,Female,Right,22,1,0
824303,Right,4,Right,798,40,32,None,Incongruent,n,NA,1,ACC_6-1,experiment,acc,Female,Right,22,1,0
832265,Left,5,Left,798,0,3,Sound_1,Incongruent,n,NA,1,ACC_6-1,experiment,acc,Female,Right,22,1,0
840062,Right,5,Right,696,-50,-49,None,None,y,5,1,ACC_6-1,experiment,acc,Female,Right,22,1,0
849720,Right,1,Right,834,58,57,None,Incongruent,n,NA,1,ACC_6-1,experiment,acc,Female,Right,22,1,0
858948,Left,4,Left,630,-49,-49,Sound_1,Congruent,y,4,1,ACC_6-1,experiment,acc,Female,Right,22,1,0
869374,Right,3,Right,799,57,56,None,None,n,NA,1,ACC_6-1,experiment,acc,Female,Right,22,1,0
876637,Left,2,Left,732,-5,-2,None,Congruent,n,NA,1,ACC_6-1,experiment,acc,Female,Right,22,1,0
883834,Left,3,Left,699,-50,-48,None,None,n,NA,1,ACC_6-1,experiment,acc,Female,Right,22,1,0
891028,Left,1,Left,799,3,4,None,None,n,NA,1,ACC_6-1,experiment,acc,Female,Right,22,1,0
898257,Left,4,Left,533,45,38,None,Congruent,y,4,1,ACC_6-1,experiment,acc,Female,Right,22,1,0
906620,Right,3,Right,467,0,5,None,None,y,3,1,ACC_6-1,experiment,acc,Female,Right,22,1,0
914379,Left,2,Left,734,-51,-47,Sound_1,None,n,NA,1,ACC_6-1,experiment,acc,Female,Right,22,1,0
924139,Right,2,Right,499,51,52,Sound_1,None,n,NA,1,ACC_6-1,experiment,acc,Female,Right,22,1,0
931602,Left,7,Left,665,1,3,None,None,n,NA,1,ACC_6-1,experiment,acc,Female,Right,22,1,0
938730,Left,1,Left,632,52,51,None,Congruent,y,1,1,ACC_6-1,experiment,acc,Female,Right,22,1,0
946325,Right,4,Right,598,0,5,Sound_1,Congruent,y,4,1,ACC_6-1,experiment,acc,Female,Right,22,1,0
953920,Right,6,Right,631,-51,-50,Sound_1,Congruent,y,6,1,ACC_6-1,experiment,acc,Female,Right,22,1,0
961482,Right,3,None,1001,8,7,None,Incongruent,n,NA,1,ACC_6-1,experiment,acc,Female,Right,22,0,1
968311,Right,5,Right,731,53,54,None,Incongruent,y,5,1,ACC_6-1,experiment,acc,Female,Right,22,1,0
976072,Right,8,Right,473,0,3,None,Congruent,y,8,1,ACC_6-1,experiment,acc,Female,Right,22,1,0
983502,Left,7,Left,563,-49,-45,Sound_1,Congruent,y,7,1,ACC_6-1,experiment,acc,Female,Right,22,1,0
998890,Left,6,None,1001,-3,-8,Sound_1,None,n,NA,1,ACC_6-1,experiment,acc,Female,Right,22,0,1
1020644,Left,2,Left,965,-44,-49,None,Incongruent,n,NA,1,ACC_6-1,experiment,acc,Female,Right,22,1,0
1030138,Right,8,None,1001,57,59,None,Congruent,n,NA,1,ACC_6-1,experiment,acc,Female,Right,22,0,1
1039798,Right,5,Right,732,6,3,None,Congruent,y,5,1,ACC_6-1,experiment,acc,Female,Right,22,1,0
1047527,Right,4,Right,831,-51,-49,Sound_1,Incongruent,n,NA,1,ACC_6-1,experiment,acc,Female,Right,22,1,0
1055355,Right,2,Right,866,-2,0,None,None,n,NA,1,ACC_6-1,experiment,acc,Female,Right,22,1,0
1062717,Left,1,Left,599,-50,-46,Sound_1,Congruent,y,1,1,ACC_6-1,experiment,acc,Female,Right,22,1,0
1072745,Right,6,Right,866,52,46,None,None,n,NA,1,ACC_6-1,experiment,acc,Female,Right,22,1,0
1088901,Right,5,Right,898,-56,-32,Sound_1,Congruent,n,NA,1,ACC_6-1,experiment,acc,Female,Right,22,1,0
1102925,Left,8,Left,732,46,44,None,Incongruent,y,8,1,ACC_6-1,experiment,acc,Female,Right,22,1,0
1112652,Left,8,Left,799,-53,-48,None,Incongruent,n,NA,1,ACC_6-1,experiment,acc,Female,Right,22,1,0
1119947,Left,1,Left,632,4,3,Sound_1,Congruent,n,NA,1,ACC_6-1,experiment,acc,Female,Right,22,1,0
1127542,Left,7,Left,965,-47,-41,None,None,y,7,1,ACC_6-1,experiment,acc,Female,Right,22,1,0
1139768,Right,7,Right,865,43,49,None,Incongruent,n,NA,1,ACC_6-1,experiment,acc,Female,Right,22,1,0
1149128,Right,6,Right,732,-42,-40,None,Incongruent,y,6,1,ACC_6-1,experiment,acc,Female,Right,22,1,0
1157390,Left,1,Left,675,0,2,None,Incongruent,y,1,1,ACC_6-1,experiment,acc,Female,Right,22,1,0
1165619,Left,2,None,1001,48,37,None,None,n,NA,1,ACC_6-1,experiment,acc,Female,Right,22,0,1
1174512,Right,4,Right,700,-48,-48,None,None,n,NA,1,ACC_6-1,experiment,acc,Female,Right,22,1,0
1212520,Left,3,Left,899,53,31,None,Congruent,n,NA,1,ACC_6-1,experiment,acc,Female,Right,22,1,0
1222081,Left,5,Left,599,-46,-50,None,Congruent,y,5,1,ACC_6-1,experiment,acc,Female,Right,22,1,0
1230276,Right,6,Right,799,-3,0,None,Incongruent,n,NA,1,ACC_6-1,experiment,acc,Female,Right,22,1,0
1238271,Left,8,Left,865,33,32,None,None,n,NA,1,ACC_6-1,experiment,acc,Female,Right,22,1,0
