,subj,stimType,stimPos,resp,rt,initWheelPos,finalWheelPos,tone,flanker,cue,cuePos,trialNum,phase,bias,sex,hand,age,acc,err,rt_mean,rt_clean
24,RT_9-1,Right,7,Right,636,-43,-40,Sound_1,Incongruent,n,,1,experiment,rt,Male,Right,21,1,0,622.296875,636.0
25,RT_9-1,Right,2,Right,498,37,38,Sound_1,Congruent,y,2.0,1,experiment,rt,Male,Right,21,1,0,590.21875,498.0
26,RT_9-1,Right,6,Left,666,-31,-32,None,Congruent,n,,1,experiment,rt,Male,Right,21,0,1,590.21875,666.0
27,RT_9-1,Left,4,Left,765,3,-5,None,None,n,,1,experiment,rt,Male,Right,21,1,0,577.90625,765.0
28,RT_9-1,Left,6,Left,666,43,39,Sound_1,Incongruent,n,,1,experiment,rt,Male,Right,21,1,0,622.296875,666.0
29,RT_9-1,Right,5,Right,766,4,0,None,Congruent,y,5.0,1,experiment,rt,Male,Right,21,1,0,590.21875,766.0
30,RT_9-1,Left,5,Left,732,-31,-32,None,Incongruent,n,,1,experiment,rt,Male,Right,21,1,0,622.296875,732.0
31,RT_9-1,Left,7,Left,564,33,32,Sound_1,Incongruent,y,7.0,1,experiment,rt,Male,Right,21,1,0,622.296875,564.0
32,RT_9-1,Left,6,Left,531,-41,-30,None,Incongruent,y,6.0,1,experiment,rt,Male,Right,21,1,0,622.296875,531.0
33,RT_9-1,Right,3,Right,599,35,35,Sound_1,Incongruent,n,,1,experiment,rt,Male,Right,21,1,0,622.296875,599.0
34,RT_9-1,Left,7,Left,699,-43,-44,Sound_1,Incongruent,n,,1,experiment,rt,Male,Right,21,1,0,622.296875,699.0
35,RT_9-1,Right,7,Right,565,48,47,None,None,y,7.0,1,experiment,rt,Male,Right,21,1,0,577.90625,565.0
36,RT_9-1,Left,3,Left,699,-2,-1,None,Congruent,y,3.0,1,experiment,rt,Male,Right,21,1,0,590.21875,699.0
37,RT_9-1,Right,1,Right,799,-52,-50,None,None,n,,1,experiment,rt,Male,Right,21,1,0,577.90625,799.0
38,RT_9-1,Right,7,Right,599,45,42,None,Incongruent,n,,1,experiment,rt,Male,Right,21,1,0,622.296875,599.0
39,RT_9-1,Left,1,Left,564,-46,-46,Sound_1,Congruent,y,1.0,1,experiment,rt,Male,Right,21,1,0,590.21875,564.0
40,RT_9-1,Right,5,Right,465,34,29,Sound_1,Congruent,y,5.0,1,experiment,rt,Male,Right,21,1,0,590.21875,465.0
41,RT_9-1,Left,8,Left,598,-37,-34,None,Congruent,y,8.0,1,experiment,rt,Male,Right,21,1,0,590.21875,598.0
42,RT_9-1,Right,4,Right,499,33,34,None,None,y,4.0,1,experiment,rt,Male,Right,21,1,0,577.90625,499.0
43,RT_9-1,Left,5,Left,832,-41,-40,Sound_1,Incongruent,y,5.0,1,experiment,rt,Male,Right,21,1,0,622.296875,832.0
44,RT_9-1,Right,4,Right,566,45,44,None,Incongruent,n,,1,experiment,rt,Male,Right,21,1,0,622.296875,566.0
45,RT_9-1,Left,5,Left,565,-57,-28,None,Congruent,y,5.0,1,experiment,rt,Male,Right,21,1,0,590.21875,565.0
46,RT_9-1,Right,6,Right,564,0,-2,Sound_1,Incongruent,y,6.0,1,experiment,rt,Male,Right,21,1,0,622.296875,564.0
47,RT_9-1,Left,3,Left,665,42,41,Sound_1,Incongruent,n,,1,experiment,rt,Male,Right,21,1,0,622.296875,665.0
48,RT_9-1,Left,7,Left,732,-54,-55,None,Congruent,n,,1,experiment,rt,Male,Right,21,1,0,590.21875,732.0
49,RT_9-1,Right,5,Right,566,5,0,Sound_1,Incongruent,n,,1,experiment,rt,Male,Right,21,1,0,622.296875,566.0
50,RT_9-1,Right,3,Right,733,42,40,None,None,n,,1,experiment,rt,Male,Right,21,1,0,577.90625,733.0
51,RT_9-1,Left,2,Left,598,-40,-39,Sound_1,Incongruent,y,2.0,1,experiment,rt,Male,Right,21,1,0,622.296875,598.0
52,RT_9-1,Left,1,Left,732,49,47,None,Incongruent,n,,1,experiment,rt,Male,Right,21,1,0,622.296875,732.0
53,RT_9-1,Left,6,Left,532,-48,-47,Sound_1,None,y,6.0,1,experiment,rt,Male,Right,21,1,0,577.90625,532.0
54,RT_9-1,Left,1,Left,633,4,-4,Sound_1,Congruent,n,,1,experiment,rt,Male,Right,21,1,0,590.21875,633.0
55,RT_9-1,Left,2,Left,531,40,39,Sound_1,None,y,2.0,1,experiment,rt,Male,Right,21,1,0,577.90625,531.0
56,RT_9-1,Right,3,Right,832,-39,-33,Sound_1,None,n,,1,experiment,rt,Male,Right,21,1,0,577.90625,832.0
57,RT_9-1,Right,6,Right,699,34,34,None,None,n,,1,experiment,rt,Male,Right,21,1,0,577.90625,699.0
58,RT_9-1,Right,1,Right,498,-2,0,Sound_1,Congruent,y,1.0,1,experiment,rt,Male,Right,21,1,0,590.21875,498.0
59,RT_9-1,Right,2,Right,466,-45,-45,Sound_1,Congruent,n,,1,experiment,rt,Male,Right,21,1,0,590.21875,466.0
60,RT_9-1,Right,4,Right,465,-3,0,Sound_1,Congruent,y,4.0,1,experiment,rt,Male,Right,21,1,0,590.21875,465.0
61,RT_9-1,Left,7,Left,599,-38,-37,None,None,y,7.0,1,experiment,rt,Male,Right,21,1,0,577.90625,599.0
62,RT_9-1,Left,8,Left,532,40,45,Sound_1,None,y,8.0,1,experiment,rt,Male,Right,21,1,0,577.90625,532.0
63,RT_9-1,Right,2,Right,499,-2,0,None,Congruent,y,2.0,1,experiment,rt,Male,Right,21,1,0,590.21875,499.0
64,RT_9-1,Left,3,Left,566,-47,-46,None,Incongruent,y,3.0,1,experiment,rt,Male,Right,21,1,0,622.296875,566.0
65,RT_9-1,Left,6,Left,699,0,-3,None,Incongruent,n,,1,experiment,rt,Male,Right,21,1,0,622.296875,699.0
66,RT_9-1,Right,5,Right,532,35,33,None,Incongruent,y,5.0,1,experiment,rt,Male,Right,21,1,0,622.296875,532.0
67,RT_9-1,Right,7,Left,497,-3,-4,Sound_1,Congruent,y,7.0,1,experiment,rt,Male,Right,21,0,1,590.21875,497.0
68,RT_9-1,Right,2,Right,532,37,37,None,Congruent,n,,1,experiment,rt,Male,Right,21,1,0,590.21875,532.0
69,RT_9-1,Left,2,Left,498,-3,-4,Sound_1,Congruent,y,2.0,1,experiment,rt,Male,Right,21,1,0,590.21875,498.0
70,RT_9-1,Right,1,Right,932,42,40,None,Incongruent,n,,1,experiment,rt,Male,Right,21,1,0,622.296875,932.0
71,RT_9-1,Left,8,Right,532,-1,-1,Sound_1,Congruent,y,8.0,1,experiment,rt,Male,Right,21,0,1,590.21875,532.0
72,RT_9-1,Left,5,Left,665,-32,-35,Sound_1,None,n,,1,experiment,rt,Male,Right,21,1,0,577.90625,665.0
73,RT_9-1,Right,1,Right,498,0,-2,Sound_1,None,n,,1,experiment,rt,Male,Right,21,1,0,577.90625,498.0
74,RT_9-1,Right,4,Right,598,35,36,Sound_1,Incongruent,y,4.0,1,experiment,rt,Male,Right,21,1,0,622.296875,598.0
75,RT_9-1,Right,8,Right,598,-32,-33,Sound_1,Congruent,n,,1,experiment,rt,Male,Right,21,1,0,590.21875,598.0
76,RT_9-1,Left,2,Left,668,38,34,None,Incongruent,y,2.0,1,experiment,rt,Male,Right,21,1,0,622.296875,668.0
77,RT_9-1,Right,6,Right,698,-45,-41,Sound_1,Congruent,y,6.0,1,experiment,rt,Male,Right,21,1,0,590.21875,698.0
78,RT_9-1,Right,2,Right,666,0,0,Sound_1,Incongruent,n,,1,experiment,rt,Male,Right,21,1,0,622.296875,666.0
79,RT_9-1,Right,7,Right,532,43,39,Sound_1,Congruent,n,,1,experiment,rt,Male,Right,21,1,0,590.21875,532.0
80,RT_9-1,Left,4,Left,531,-2,0,Sound_1,None,y,4.0,1,experiment,rt,Male,Right,21,1,0,577.90625,531.0
81,RT_9-1,Left,5,Left,732,34,32,Sound_1,Congruent,n,,1,experiment,rt,Male,Right,21,1,0,590.21875,732.0
82,RT_9-1,Right,3,Right,531,2,0,Sound_1,Incongruent,y,3.0,1,experiment,rt,Male,Right,21,1,0,622.296875,531.0
83,RT_9-1,Right,1,Right,567,-43,-29,Sound_1,Incongruent,n,,1,experiment,rt,Male,Right,21,1,0,622.296875,567.0
84,RT_9-1,Right,7,Right,566,3,-1,Sound_1,None,n,,1,experiment,rt,Male,Right,21,1,0,577.90625,566.0
85,RT_9-1,Left,6,Left,699,37,32,None,Congruent,n,,1,experiment,rt,Male,Right,21,1,0,590.21875,699.0
86,RT_9-1,Right,8,Right,566,-1,1,None,None,n,,1,experiment,rt,Male,Right,21,1,0,577.90625,566.0
87,RT_9-1,Left,5,Left,599,47,44,None,Incongruent,y,5.0,1,experiment,rt,Male,Right,21,1,0,622.296875,599.0
88,RT_9-1,Right,5,Right,498,-34,-33,Sound_1,Incongruent,y,5.0,1,experiment,rt,Male,Right,21,1,0,622.296875,498.0
89,RT_9-1,Left,7,Left,799,38,33,None,Incongruent,n,,1,experiment,rt,Male,Right,21,1,0,622.296875,799.0
90,RT_9-1,Right,3,Right,668,-30,-41,None,Congruent,n,,1,experiment,rt,Male,Right,21,1,0,590.21875,668.0
91,RT_9-1,Left,7,Left,733,4,0,None,None,n,,1,experiment,rt,Male,Right,21,1,0,577.90625,733.0
92,RT_9-1,Left,1,Left,598,45,41,Sound_1,Incongruent,y,1.0,1,experiment,rt,Male,Right,21,1,0,622.296875,598.0
93,RT_9-1,Left,1,Left,531,-3,0,Sound_1,None,y,1.0,1,experiment,rt,Male,Right,21,1,0,577.90625,531.0
94,RT_9-1,Right,8,Right,599,30,46,Sound_1,None,n,,1,experiment,rt,Male,Right,21,1,0,577.90625,599.0
95,RT_9-1,Left,8,Left,665,-37,-38,Sound_1,Incongruent,y,8.0,1,experiment,rt,Male,Right,21,1,0,622.296875,665.0
96,RT_9-1,Right,6,Right,565,35,34,Sound_1,None,y,6.0,1,experiment,rt,Male,Right,21,1,0,577.90625,565.0
97,RT_9-1,Left,8,Left,632,-33,-31,Sound_1,None,n,,1,experiment,rt,Male,Right,21,1,0,577.90625,632.0
98,RT_9-1,Left,8,Left,833,33,33,None,None,n,,1,experiment,rt,Male,Right,21,1,0,577.90625,833.0
99,RT_9-1,Left,4,Left,565,-7,0,None,Incongruent,y,4.0,1,experiment,rt,Male,Right,21,1,0,622.296875,565.0
100,RT_9-1,Left,2,Left,732,35,33,Sound_1,Congruent,n,,1,experiment,rt,Male,Right,21,1,0,590.21875,732.0
101,RT_9-1,Left,5,Left,732,0,1,None,Congruent,n,,1,experiment,rt,Male,Right,21,1,0,590.21875,732.0
102,RT_9-1,Left,4,Left,599,34,32,Sound_1,None,n,,1,experiment,rt,Male,Right,21,1,0,577.90625,599.0
103,RT_9-1,Left,3,Left,699,0,2,None,Incongruent,n,,1,experiment,rt,Male,Right,21,1,0,622.296875,699.0
104,RT_9-1,Left,2,Left,666,-33,-31,Sound_1,None,n,,1,experiment,rt,Male,Right,21,1,0,577.90625,666.0
105,RT_9-1,Right,6,Right,599,5,0,Sound_1,Congruent,n,,1,experiment,rt,Male,Right,21,1,0,590.21875,599.0
106,RT_9-1,Right,6,Right,499,-35,-34,Sound_1,None,n,,1,experiment,rt,Male,Right,21,1,0,577.90625,499.0
107,RT_9-1,Left,5,Left,531,0,-3,Sound_1,Congruent,y,5.0,1,experiment,rt,Male,Right,21,1,0,590.21875,531.0
108,RT_9-1,Left,3,Left,599,30,30,None,None,y,3.0,1,experiment,rt,Male,Right,21,1,0,577.90625,599.0
109,RT_9-1,Right,4,Right,632,-5,-1,None,Incongruent,y,4.0,1,experiment,rt,Male,Right,21,1,0,622.296875,632.0
110,RT_9-1,Left,1,Left,766,-39,-39,None,Congruent,n,,1,experiment,rt,Male,Right,21,1,0,590.21875,766.0
111,RT_9-1,Right,3,Right,599,0,-2,Sound_1,Congruent,n,,1,experiment,rt,Male,Right,21,1,0,590.21875,599.0
112,RT_9-1,Right,3,Right,566,-32,-33,None,Incongruent,y,3.0,1,experiment,rt,Male,Right,21,1,0,622.296875,566.0
113,RT_9-1,Left,4,Left,498,36,34,None,Congruent,y,4.0,1,experiment,rt,Male,Right,21,1,0,590.21875,498.0
114,RT_9-1,Right,4,Right,567,-3,-1,None,Congruent,n,,1,experiment,rt,Male,Right,21,1,0,590.21875,567.0
115,RT_9-1,Right,1,Right,498,35,36,Sound_1,Congruent,n,,1,experiment,rt,Male,Right,21,1,0,590.21875,498.0
116,RT_9-1,Left,5,Left,533,5,-2,None,None,y,5.0,1,experiment,rt,Male,Right,21,1,0,577.90625,533.0
117,RT_9-1,Left,3,Left,533,-37,-39,Sound_1,None,y,3.0,1,experiment,rt,Male,Right,21,1,0,577.90625,533.0
118,RT_9-1,Left,6,Left,532,35,35,Sound_1,Congruent,y,6.0,1,experiment,rt,Male,Right,21,1,0,590.21875,532.0
119,RT_9-1,Right,8,Right,598,-4,0,None,Congruent,y,8.0,1,experiment,rt,Male,Right,21,1,0,590.21875,598.0
120,RT_9-1,Left,7,Left,499,37,37,Sound_1,None,n,,1,experiment,rt,Male,Right,21,1,0,577.90625,499.0
121,RT_9-1,Left,4,Left,666,-31,-31,None,None,y,4.0,1,experiment,rt,Male,Right,21,1,0,577.90625,666.0
122,RT_9-1,Right,8,Right,563,35,37,Sound_1,Congruent,y,8.0,1,experiment,rt,Male,Right,21,1,0,590.21875,563.0
123,RT_9-1,Right,8,Right,499,-30,-30,None,None,y,8.0,1,experiment,rt,Male,Right,21,1,0,577.90625,499.0
124,RT_9-1,Right,6,Right,699,0,1,None,Incongruent,n,,1,experiment,rt,Male,Right,21,1,0,622.296875,699.0
125,RT_9-1,Left,3,Left,665,-38,-38,None,None,n,,1,experiment,rt,Male,Right,21,1,0,577.90625,665.0
126,RT_9-1,Left,5,Left,532,31,30,Sound_1,None,y,5.0,1,experiment,rt,Male,Right,21,1,0,577.90625,532.0
127,RT_9-1,Right,5,Right,466,-2,0,Sound_1,None,y,5.0,1,experiment,rt,Male,Right,21,1,0,577.90625,466.0
128,RT_9-1,Left,8,Left,533,34,32,Sound_1,Congruent,n,,1,experiment,rt,Male,Right,21,1,0,590.21875,533.0
129,RT_9-1,Left,4,Left,633,0,0,Sound_1,Congruent,n,,1,experiment,rt,Male,Right,21,1,0,590.21875,633.0
130,RT_9-1,Right,7,Right,531,-31,-30,Sound_1,None,y,7.0,1,experiment,rt,Male,Right,21,1,0,577.90625,531.0
131,RT_9-1,Right,5,Right,765,32,36,None,Congruent,n,,1,experiment,rt,Male,Right,21,1,0,590.21875,765.0
132,RT_9-1,Right,4,Right,565,-39,-37,Sound_1,Incongruent,n,,1,experiment,rt,Male,Right,21,1,0,622.296875,565.0
133,RT_9-1,Left,7,Left,500,3,-3,None,Incongruent,y,7.0,1,experiment,rt,Male,Right,21,1,0,622.296875,500.0
134,RT_9-1,Right,8,Right,632,39,34,None,Incongruent,y,8.0,1,experiment,rt,Male,Right,21,1,0,622.296875,632.0
135,RT_9-1,Right,7,Right,566,-43,-44,None,None,n,,1,experiment,rt,Male,Right,21,1,0,577.90625,566.0
136,RT_9-1,Left,4,Left,531,31,30,Sound_1,Incongruent,y,4.0,1,experiment,rt,Male,Right,21,1,0,622.296875,531.0
137,RT_9-1,Right,6,Right,499,-3,-2,None,None,y,6.0,1,experiment,rt,Male,Right,21,1,0,577.90625,499.0
138,RT_9-1,Right,5,Right,699,-34,-34,None,Incongruent,n,,1,experiment,rt,Male,Right,21,1,0,622.296875,699.0
139,RT_9-1,Right,8,Right,599,35,32,None,Congruent,n,,1,experiment,rt,Male,Right,21,1,0,590.21875,599.0
140,RT_9-1,Right,2,Right,533,-38,-37,None,None,y,2.0,1,experiment,rt,Male,Right,21,1,0,577.90625,533.0
141,RT_9-1,Right,2,Right,431,-1,-1,Sound_1,None,y,2.0,1,experiment,rt,Male,Right,21,1,0,577.90625,431.0
142,RT_9-1,Right,1,Right,432,-40,-40,Sound_1,None,y,1.0,1,experiment,rt,Male,Right,21,1,0,577.90625,432.0
143,RT_9-1,Left,7,Left,499,32,29,None,Congruent,y,7.0,1,experiment,rt,Male,Right,21,1,0,590.21875,499.0
144,RT_9-1,Right,7,Right,632,0,1,None,Incongruent,y,7.0,1,experiment,rt,Male,Right,21,1,0,622.296875,632.0
145,RT_9-1,Left,4,Left,800,-44,-43,None,Congruent,n,,1,experiment,rt,Male,Right,21,1,0,590.21875,800.0
146,RT_9-1,Left,3,Left,533,0,-4,Sound_1,None,n,,1,experiment,rt,Male,Right,21,1,0,577.90625,533.0
147,RT_9-1,Right,4,Left,532,-40,-40,None,Congruent,y,4.0,1,experiment,rt,Male,Right,21,0,1,590.21875,532.0
148,RT_9-1,Right,1,Right,466,8,3,None,Incongruent,y,1.0,1,experiment,rt,Male,Right,21,1,0,622.296875,466.0
149,RT_9-1,Right,1,Right,532,-43,-40,None,Congruent,y,1.0,1,experiment,rt,Male,Right,21,1,0,590.21875,532.0
150,RT_9-1,Left,8,Left,632,33,28,None,Incongruent,y,8.0,1,experiment,rt,Male,Right,21,1,0,622.296875,632.0
151,RT_9-1,Left,6,Left,699,-4,-1,Sound_1,None,n,,1,experiment,rt,Male,Right,21,1,0,577.90625,699.0
152,RT_9-1,Right,4,Right,499,41,41,Sound_1,Congruent,n,,1,experiment,rt,Male,Right,21,1,0,590.21875,499.0
153,RT_9-1,Left,2,Left,532,-35,-36,None,Congruent,y,2.0,1,experiment,rt,Male,Right,21,1,0,590.21875,532.0
154,RT_9-1,Right,3,Right,465,3,0,None,None,y,3.0,1,experiment,rt,Male,Right,21,1,0,577.90625,465.0
155,RT_9-1,Right,7,Right,598,31,31,Sound_1,Incongruent,y,7.0,1,experiment,rt,Male,Right,21,1,0,622.296875,598.0
156,RT_9-1,Left,3,Left,632,-43,-45,Sound_1,Congruent,n,,1,experiment,rt,Male,Right,21,1,0,590.21875,632.0
157,RT_9-1,Right,2,Right,499,37,38,None,Incongruent,y,2.0,1,experiment,rt,Male,Right,21,1,0,622.296875,499.0
158,RT_9-1,Right,8,Right,531,-1,0,Sound_1,None,y,8.0,1,experiment,rt,Male,Right,21,1,0,577.90625,531.0
159,RT_9-1,Left,5,Left,766,30,29,None,None,n,,1,experiment,rt,Male,Right,21,1,0,577.90625,766.0
160,RT_9-1,Right,7,Left,499,-51,-50,None,Congruent,y,7.0,1,experiment,rt,Male,Right,21,0,1,590.21875,499.0
161,RT_9-1,Right,3,Right,566,1,1,None,Incongruent,n,,1,experiment,rt,Male,Right,21,1,0,622.296875,566.0
162,RT_9-1,Right,1,Right,499,33,33,None,None,y,1.0,1,experiment,rt,Male,Right,21,1,0,577.90625,499.0
163,RT_9-1,Left,4,Left,630,-34,-41,Sound_1,Congruent,y,4.0,1,experiment,rt,Male,Right,21,1,0,590.21875,630.0
164,RT_9-1,Left,6,Left,631,0,-2,Sound_1,Incongruent,y,6.0,1,experiment,rt,Male,Right,21,1,0,622.296875,631.0
165,RT_9-1,Right,1,Right,497,31,32,Sound_1,Incongruent,y,1.0,1,experiment,rt,Male,Right,21,1,0,622.296875,497.0
166,RT_9-1,Right,2,Right,633,-39,-38,None,Incongruent,n,,1,experiment,rt,Male,Right,21,1,0,622.296875,633.0
167,RT_9-1,Right,2,Right,632,2,-1,None,None,n,,1,experiment,rt,Male,Right,21,1,0,577.90625,632.0
168,RT_9-1,Left,8,Left,732,-48,-47,None,Incongruent,n,,1,experiment,rt,Male,Right,21,1,0,622.296875,732.0
169,RT_9-1,Right,3,Right,499,44,42,None,Congruent,y,3.0,1,experiment,rt,Male,Right,21,1,0,590.21875,499.0
170,RT_9-1,Right,8,Right,465,-46,-45,Sound_1,Incongruent,y,8.0,1,experiment,rt,Male,Right,21,1,0,622.296875,465.0
171,RT_9-1,Right,5,Right,732,0,-3,None,None,n,,1,experiment,rt,Male,Right,21,1,0,577.90625,732.0
172,RT_9-1,Left,3,Left,799,36,36,None,Congruent,n,,1,experiment,rt,Male,Right,21,1,0,590.21875,799.0
173,RT_9-1,Left,3,Left,664,-5,-3,Sound_1,Incongruent,y,3.0,1,experiment,rt,Male,Right,21,1,0,622.296875,664.0
174,RT_9-1,Right,2,Right,465,-34,-32,Sound_1,Incongruent,y,2.0,1,experiment,rt,Male,Right,21,1,0,622.296875,465.0
175,RT_9-1,Left,8,Left,632,2,-1,Sound_1,Incongruent,n,,1,experiment,rt,Male,Right,21,1,0,622.296875,632.0
176,RT_9-1,Right,8,Right,566,-37,-38,None,Incongruent,n,,1,experiment,rt,Male,Right,21,1,0,622.296875,566.0
177,RT_9-1,Left,6,Left,565,-1,-4,None,Congruent,y,6.0,1,experiment,rt,Male,Right,21,1,0,590.21875,565.0
178,RT_9-1,Right,5,Right,499,34,36,Sound_1,None,n,,1,experiment,rt,Male,Right,21,1,0,577.90625,499.0
179,RT_9-1,Left,8,Left,532,-7,-6,None,None,y,8.0,1,experiment,rt,Male,Right,21,1,0,577.90625,532.0
180,RT_9-1,Right,3,Right,464,34,36,Sound_1,None,y,3.0,1,experiment,rt,Male,Right,21,1,0,577.90625,464.0
181,RT_9-1,Left,7,Left,431,-2,0,Sound_1,None,y,7.0,1,experiment,rt,Male,Right,21,1,0,577.90625,431.0
182,RT_9-1,Left,6,Left,567,-41,-41,None,None,n,,1,experiment,rt,Male,Right,21,1,0,577.90625,567.0
183,RT_9-1,Left,4,Left,833,34,31,None,Incongruent,n,,1,experiment,rt,Male,Right,21,1,0,622.296875,833.0
184,RT_9-1,Left,6,Left,532,-43,-42,Sound_1,Congruent,n,,1,experiment,rt,Male,Right,21,1,0,590.21875,532.0
185,RT_9-1,Left,8,Left,671,0,-3,None,Congruent,n,,1,experiment,rt,Male,Right,21,1,0,590.21875,671.0
186,RT_9-1,Left,3,Left,498,36,33,Sound_1,Congruent,y,3.0,1,experiment,rt,Male,Right,21,1,0,590.21875,498.0
187,RT_9-1,Right,7,Right,699,-9,-2,None,Congruent,n,,1,experiment,rt,Male,Right,21,1,0,590.21875,699.0
188,RT_9-1,Right,4,Right,436,-36,-37,Sound_1,None,y,4.0,1,experiment,rt,Male,Right,21,1,0,577.90625,436.0
189,RT_9-1,Left,6,Left,432,37,36,None,None,y,6.0,1,experiment,rt,Male,Right,21,1,0,577.90625,432.0
190,RT_9-1,Left,2,Left,702,-3,-3,None,Congruent,n,,1,experiment,rt,Male,Right,21,1,0,590.21875,702.0
191,RT_9-1,Right,6,Right,599,36,35,Sound_1,Incongruent,n,,1,experiment,rt,Male,Right,21,1,0,622.296875,599.0
192,RT_9-1,Left,1,Left,699,-2,-3,None,Incongruent,y,1.0,1,experiment,rt,Male,Right,21,1,0,622.296875,699.0
193,RT_9-1,Left,1,Left,700,-41,-36,Sound_1,Incongruent,n,,1,experiment,rt,Male,Right,21,1,0,622.296875,700.0
194,RT_9-1,Left,1,Left,571,37,37,Sound_1,None,n,,1,experiment,rt,Male,Right,21,1,0,577.90625,571.0
195,RT_9-1,Right,4,Right,636,-49,-48,None,None,n,,1,experiment,rt,Male,Right,21,1,0,577.90625,636.0
196,RT_9-1,Left,1,Left,537,40,38,None,Congruent,y,1.0,1,experiment,rt,Male,Right,21,1,0,590.21875,537.0
197,RT_9-1,Right,5,Right,470,-54,-48,None,None,y,5.0,1,experiment,rt,Male,Right,21,1,0,577.90625,470.0
198,RT_9-1,Left,2,Left,599,0,-4,Sound_1,Incongruent,n,,1,experiment,rt,Male,Right,21,1,0,622.296875,599.0
199,RT_9-1,Right,5,Right,499,-40,-37,Sound_1,Congruent,n,,1,experiment,rt,Male,Right,21,1,0,590.21875,499.0
200,RT_9-1,Left,1,Left,769,0,-1,None,None,n,,1,experiment,rt,Male,Right,21,1,0,577.90625,769.0
201,RT_9-1,Left,7,Left,531,-41,-41,Sound_1,Congruent,y,7.0,1,experiment,rt,Male,Right,21,1,0,590.21875,531.0
202,RT_9-1,Left,7,Left,502,3,-1,Sound_1,Congruent,n,,1,experiment,rt,Male,Right,21,1,0,590.21875,502.0
203,RT_9-1,Left,2,Left,666,-35,-35,None,Incongruent,n,,1,experiment,rt,Male,Right,21,1,0,622.296875,666.0
204,RT_9-1,Right,4,Right,505,3,1,Sound_1,None,n,,1,experiment,rt,Male,Right,21,1,0,577.90625,505.0
205,RT_9-1,Left,1,Left,532,-35,-36,None,None,y,1.0,1,experiment,rt,Male,Right,21,1,0,577.90625,532.0
206,RT_9-1,Left,5,Left,633,-1,-2,Sound_1,Incongruent,n,,1,experiment,rt,Male,Right,21,1,0,622.296875,633.0
207,RT_9-1,Left,4,Left,567,-37,-36,Sound_1,Incongruent,n,,1,experiment,rt,Male,Right,21,1,0,622.296875,567.0
208,RT_9-1,Left,2,Left,600,2,0,None,None,y,2.0,1,experiment,rt,Male,Right,21,1,0,577.90625,600.0
209,RT_9-1,Right,2,Right,466,32,34,Sound_1,None,n,,1,experiment,rt,Male,Right,21,1,0,577.90625,466.0
210,RT_9-1,Right,3,Right,498,-48,-48,Sound_1,Congruent,y,3.0,1,experiment,rt,Male,Right,21,1,0,590.21875,498.0
211,RT_9-1,Right,6,Right,604,32,32,None,Congruent,y,6.0,1,experiment,rt,Male,Right,21,1,0,590.21875,604.0
212,RT_9-1,Right,6,Right,599,-36,-41,None,Incongruent,y,6.0,1,experiment,rt,Male,Right,21,1,0,622.296875,599.0
213,RT_9-1,Right,1,Right,638,8,3,None,Congruent,n,,1,experiment,rt,Male,Right,21,1,0,590.21875,638.0
214,RT_9-1,Left,2,Left,666,34,31,None,None,n,,1,experiment,rt,Male,Right,21,1,0,577.90625,666.0
215,RT_9-1,Right,8,Right,699,-4,-2,Sound_1,Incongruent,n,,1,experiment,rt,Male,Right,21,1,0,622.296875,699.0
240,RT_6-1,Right,5,Left,602,-1,1,Sound_1,Incongruent,n,,1,experiment,rt,Other,Right,20,0,1,626.3492063492064,602.0
241,RT_6-1,Right,1,Right,397,-38,-38,Sound_1,None,y,1.0,1,experiment,rt,Other,Right,20,1,0,538.4375,397.0
242,RT_6-1,Left,2,Left,498,0,-4,Sound_1,Congruent,y,2.0,1,experiment,rt,Other,Right,20,1,0,546.109375,498.0
243,RT_6-1,Right,4,Right,799,-40,-36,None,None,n,,1,experiment,rt,Other,Right,20,1,0,538.4375,799.0
244,RT_6-1,Right,8,Right,632,-7,0,None,None,n,,1,experiment,rt,Other,Right,20,1,0,538.4375,632.0
245,RT_6-1,Left,6,Left,466,-33,-28,Sound_1,Congruent,n,,1,experiment,rt,Other,Right,20,1,0,546.109375,466.0
246,RT_6-1,Left,1,Left,566,2,-2,Sound_1,Congruent,n,,1,experiment,rt,Other,Right,20,1,0,546.109375,566.0
247,RT_6-1,Right,4,Right,365,-47,-46,Sound_1,None,y,4.0,1,experiment,rt,Other,Right,20,1,0,538.4375,365.0
248,RT_6-1,Right,7,Right,836,43,42,None,Incongruent,n,,1,experiment,rt,Other,Right,20,1,0,626.3492063492064,836.0
249,RT_6-1,Right,2,Right,607,-2,3,None,None,n,,1,experiment,rt,Other,Right,20,1,0,538.4375,607.0
250,RT_6-1,Left,8,Right,599,-57,-56,None,Incongruent,n,,1,experiment,rt,Other,Right,20,0,1,626.3492063492064,599.0
251,RT_6-1,Left,5,Right,532,3,1,Sound_1,Incongruent,n,,1,experiment,rt,Other,Right,20,0,1,626.3492063492064,532.0
252,RT_6-1,Right,4,Right,802,30,38,None,Incongruent,n,,1,experiment,rt,Other,Right,20,1,0,626.3492063492064,802.0
253,RT_6-1,Left,1,Left,599,-1,-1,None,None,n,,1,experiment,rt,Other,Right,20,1,0,538.4375,599.0
254,RT_6-1,Right,2,Right,733,-33,-32,None,Incongruent,n,,1,experiment,rt,Other,Right,20,1,0,626.3492063492064,733.0
255,RT_6-1,Right,2,Right,473,44,42,None,Congruent,n,,1,experiment,rt,Other,Right,20,1,0,546.109375,473.0
256,RT_6-1,Right,6,Right,565,-56,-29,Sound_1,None,n,,1,experiment,rt,Other,Right,20,1,0,538.4375,565.0
257,RT_6-1,Left,6,Left,466,0,-1,Sound_1,None,n,,1,experiment,rt,Other,Right,20,1,0,538.4375,466.0
258,RT_6-1,Right,4,Right,399,32,33,None,None,y,4.0,1,experiment,rt,Other,Right,20,1,0,538.4375,399.0
259,RT_6-1,Left,7,Left,664,0,0,None,Incongruent,y,7.0,1,experiment,rt,Other,Right,20,1,0,626.3492063492064,664.0
260,RT_6-1,Left,3,Left,532,-36,-34,None,Incongruent,y,3.0,1,experiment,rt,Other,Right,20,1,0,626.3492063492064,532.0
261,RT_6-1,Left,5,Left,699,35,27,None,Incongruent,y,5.0,1,experiment,rt,Other,Right,20,1,0,626.3492063492064,699.0
262,RT_6-1,Left,1,Left,534,-40,-38,None,Congruent,n,,1,experiment,rt,Other,Right,20,1,0,546.109375,534.0
263,RT_6-1,Right,5,Right,562,35,32,None,Incongruent,y,5.0,1,experiment,rt,Other,Right,20,1,0,626.3492063492064,562.0
264,RT_6-1,Left,2,Left,499,-39,-40,Sound_1,None,n,,1,experiment,rt,Other,Right,20,1,0,538.4375,499.0
265,RT_6-1,Right,4,Left,497,37,32,Sound_1,Incongruent,y,4.0,1,experiment,rt,Other,Right,20,0,1,626.3492063492064,497.0
266,RT_6-1,Right,7,Right,533,-42,-38,None,Congruent,y,7.0,1,experiment,rt,Other,Right,20,1,0,546.109375,533.0
267,RT_6-1,Left,2,Left,566,35,30,Sound_1,Congruent,n,,1,experiment,rt,Other,Right,20,1,0,546.109375,566.0
268,RT_6-1,Left,6,Left,597,-1,-5,Sound_1,Incongruent,y,6.0,1,experiment,rt,Other,Right,20,1,0,626.3492063492064,597.0
269,RT_6-1,Right,3,Right,799,44,42,None,None,n,,1,experiment,rt,Other,Right,20,1,0,538.4375,799.0
270,RT_6-1,Left,4,Left,468,-37,-32,None,None,y,4.0,1,experiment,rt,Other,Right,20,1,0,538.4375,468.0
271,RT_6-1,Right,7,Right,664,0,-1,None,Congruent,n,,1,experiment,rt,Other,Right,20,1,0,546.109375,664.0
272,RT_6-1,Left,7,Left,334,-31,-33,None,None,y,7.0,1,experiment,rt,Other,Right,20,1,0,538.4375,334.0
273,RT_6-1,Right,2,Right,399,31,32,None,Incongruent,y,2.0,1,experiment,rt,Other,Right,20,1,0,626.3492063492064,399.0
274,RT_6-1,Left,4,Left,566,-2,-4,Sound_1,Congruent,n,,1,experiment,rt,Other,Right,20,1,0,546.109375,566.0
275,RT_6-1,Left,2,Left,600,-34,-32,None,Congruent,y,2.0,1,experiment,rt,Other,Right,20,1,0,546.109375,600.0
276,RT_6-1,Left,2,Left,532,-1,-3,None,None,y,2.0,1,experiment,rt,Other,Right,20,1,0,538.4375,532.0
277,RT_6-1,Left,8,Left,664,-34,-31,Sound_1,Incongruent,y,8.0,1,experiment,rt,Other,Right,20,1,0,626.3492063492064,664.0
278,RT_6-1,Right,1,Right,532,-1,0,None,Incongruent,y,1.0,1,experiment,rt,Other,Right,20,1,0,626.3492063492064,532.0
279,RT_6-1,Right,7,Left,599,-33,-39,Sound_1,Incongruent,n,,1,experiment,rt,Other,Right,20,0,1,626.3492063492064,599.0
280,RT_6-1,Right,5,Right,498,1,1,None,Congruent,y,5.0,1,experiment,rt,Other,Right,20,1,0,546.109375,498.0
281,RT_6-1,Right,8,Right,467,35,32,None,Incongruent,y,8.0,1,experiment,rt,Other,Right,20,1,0,626.3492063492064,467.0
282,RT_6-1,Right,4,Right,632,0,-1,None,Congruent,n,,1,experiment,rt,Other,Right,20,1,0,546.109375,632.0
283,RT_6-1,Left,3,Left,705,42,40,None,Congruent,n,,1,experiment,rt,Other,Right,20,1,0,546.109375,705.0
284,RT_6-1,Left,6,Left,531,-30,-36,Sound_1,None,y,6.0,1,experiment,rt,Other,Right,20,1,0,538.4375,531.0
285,RT_6-1,Left,8,Left,566,51,53,None,Incongruent,y,8.0,1,experiment,rt,Other,Right,20,1,0,626.3492063492064,566.0
286,RT_6-1,Right,3,Right,665,-39,-33,None,Congruent,n,,1,experiment,rt,Other,Right,20,1,0,546.109375,665.0
287,RT_6-1,Right,7,Right,498,44,37,None,None,y,7.0,1,experiment,rt,Other,Right,20,1,0,538.4375,498.0
288,RT_6-1,Right,8,Right,433,-35,-31,Sound_1,Incongruent,y,8.0,1,experiment,rt,Other,Right,20,1,0,626.3492063492064,433.0
289,RT_6-1,Right,7,Right,533,2,-1,Sound_1,None,n,,1,experiment,rt,Other,Right,20,1,0,538.4375,533.0
290,RT_6-1,Right,2,Right,466,43,43,Sound_1,None,n,,1,experiment,rt,Other,Right,20,1,0,538.4375,466.0
291,RT_6-1,Right,2,Right,365,-52,-50,Sound_1,Incongruent,y,2.0,1,experiment,rt,Other,Right,20,1,0,626.3492063492064,365.0
292,RT_6-1,Left,4,Left,666,42,55,None,Congruent,y,4.0,1,experiment,rt,Other,Right,20,1,0,546.109375,666.0
293,RT_6-1,Right,5,Right,402,-45,-42,None,None,y,5.0,1,experiment,rt,Other,Right,20,1,0,538.4375,402.0
294,RT_6-1,Right,1,Right,633,39,38,None,Incongruent,n,,1,experiment,rt,Other,Right,20,1,0,626.3492063492064,633.0
295,RT_6-1,Right,3,Left,531,0,0,Sound_1,Incongruent,y,3.0,1,experiment,rt,Other,Right,20,0,1,626.3492063492064,531.0
296,RT_6-1,Left,1,Left,698,31,42,Sound_1,Incongruent,y,1.0,1,experiment,rt,Other,Right,20,1,0,626.3492063492064,698.0
297,RT_6-1,Right,7,Right,498,-39,-42,Sound_1,None,y,7.0,1,experiment,rt,Other,Right,20,1,0,538.4375,498.0
298,RT_6-1,Left,5,Left,666,38,36,None,None,n,,1,experiment,rt,Other,Right,20,1,0,538.4375,666.0
299,RT_6-1,Left,4,Left,531,1,4,Sound_1,None,y,4.0,1,experiment,rt,Other,Right,20,1,0,538.4375,531.0
300,RT_6-1,Left,7,Left,634,-52,-57,Sound_1,Incongruent,n,,1,experiment,rt,Other,Right,20,1,0,626.3492063492064,634.0
301,RT_6-1,Left,5,Left,800,6,8,None,Congruent,n,,1,experiment,rt,Other,Right,20,1,0,546.109375,800.0
302,RT_6-1,Right,3,Right,499,-31,-31,Sound_1,None,n,,1,experiment,rt,Other,Right,20,1,0,538.4375,499.0
303,RT_6-1,Left,1,Left,531,3,4,Sound_1,None,y,1.0,1,experiment,rt,Other,Right,20,1,0,538.4375,531.0
304,RT_6-1,Left,6,Left,698,45,45,None,Congruent,n,,1,experiment,rt,Other,Right,20,1,0,546.109375,698.0
305,RT_6-1,Right,4,Right,501,-2,0,Sound_1,None,n,,1,experiment,rt,Other,Right,20,1,0,538.4375,501.0
306,RT_6-1,Left,2,Left,498,33,33,Sound_1,None,y,2.0,1,experiment,rt,Other,Right,20,1,0,538.4375,498.0
307,RT_6-1,Right,1,Right,666,-36,-32,None,None,n,,1,experiment,rt,Other,Right,20,1,0,538.4375,666.0
308,RT_6-1,Left,6,Left,365,41,39,Sound_1,Congruent,y,6.0,1,experiment,rt,Other,Right,20,1,0,546.109375,365.0
309,RT_6-1,Left,2,Left,865,-38,-37,None,Incongruent,n,,1,experiment,rt,Other,Right,20,1,0,626.3492063492064,865.0
310,RT_6-1,Left,8,Left,463,41,47,Sound_1,None,y,8.0,1,experiment,rt,Other,Right,20,1,0,538.4375,463.0
311,RT_6-1,Left,4,Left,599,0,2,None,Incongruent,y,4.0,1,experiment,rt,Other,Right,20,1,0,626.3492063492064,599.0
312,RT_6-1,Right,8,Right,467,36,46,Sound_1,None,n,,1,experiment,rt,Other,Right,20,1,0,538.4375,467.0
313,RT_6-1,Left,4,Left,671,-35,-46,None,Congruent,n,,1,experiment,rt,Other,Right,20,1,0,546.109375,671.0
314,RT_6-1,Left,7,Left,364,50,41,Sound_1,Incongruent,y,7.0,1,experiment,rt,Other,Right,20,1,0,626.3492063492064,364.0
315,RT_6-1,Right,2,Right,665,-4,-7,Sound_1,Incongruent,n,,1,experiment,rt,Other,Right,20,1,0,626.3492063492064,665.0
316,RT_6-1,Left,4,Left,665,48,46,Sound_1,Incongruent,y,4.0,1,experiment,rt,Other,Right,20,1,0,626.3492063492064,665.0
317,RT_6-1,Left,1,Left,465,-37,-35,None,None,y,1.0,1,experiment,rt,Other,Right,20,1,0,538.4375,465.0
318,RT_6-1,Right,1,Right,463,4,2,Sound_1,Congruent,y,1.0,1,experiment,rt,Other,Right,20,1,0,546.109375,463.0
319,RT_6-1,Right,3,Right,699,54,63,Sound_1,Incongruent,n,,1,experiment,rt,Other,Right,20,1,0,626.3492063492064,699.0
320,RT_6-1,Left,3,Left,599,-2,-1,None,Congruent,y,3.0,1,experiment,rt,Other,Right,20,1,0,546.109375,599.0
321,RT_6-1,Left,7,Left,566,-41,-41,None,Congruent,n,,1,experiment,rt,Other,Right,20,1,0,546.109375,566.0
322,RT_6-1,Left,5,Left,531,48,46,Sound_1,None,y,5.0,1,experiment,rt,Other,Right,20,1,0,538.4375,531.0
323,RT_6-1,Right,4,Right,666,-50,-51,Sound_1,Incongruent,n,,1,experiment,rt,Other,Right,20,1,0,626.3492063492064,666.0
324,RT_6-1,Right,1,Right,433,52,59,None,None,y,1.0,1,experiment,rt,Other,Right,20,1,0,538.4375,433.0
325,RT_6-1,Left,5,Left,498,-8,-4,Sound_1,Congruent,y,5.0,1,experiment,rt,Other,Right,20,1,0,546.109375,498.0
326,RT_6-1,Right,3,Right,465,37,36,None,Congruent,y,3.0,1,experiment,rt,Other,Right,20,1,0,546.109375,465.0
327,RT_6-1,Left,8,Left,465,-3,0,Sound_1,Congruent,y,8.0,1,experiment,rt,Other,Right,20,1,0,546.109375,465.0
328,RT_6-1,Left,3,Left,498,54,52,Sound_1,Congruent,y,3.0,1,experiment,rt,Other,Right,20,1,0,546.109375,498.0
329,RT_6-1,Left,5,Left,499,-49,-52,Sound_1,None,n,,1,experiment,rt,Other,Right,20,1,0,538.4375,499.0
330,RT_6-1,Left,2,Left,699,0,0,None,Congruent,n,,1,experiment,rt,Other,Right,20,1,0,546.109375,699.0
331,RT_6-1,Right,5,Right,500,56,57,Sound_1,Congruent,y,5.0,1,experiment,rt,Other,Right,20,1,0,546.109375,500.0
332,RT_6-1,Right,6,Right,465,-51,-31,Sound_1,Congruent,y,6.0,1,experiment,rt,Other,Right,20,1,0,546.109375,465.0
333,RT_6-1,Right,6,Right,499,51,54,None,Congruent,y,6.0,1,experiment,rt,Other,Right,20,1,0,546.109375,499.0
334,RT_6-1,Right,6,Right,866,-4,-6,None,Incongruent,n,,1,experiment,rt,Other,Right,20,1,0,626.3492063492064,866.0
335,RT_6-1,Left,4,Left,498,-39,-40,Sound_1,Congruent,y,4.0,1,experiment,rt,Other,Right,20,1,0,546.109375,498.0
336,RT_6-1,Left,5,Left,467,4,1,None,None,y,5.0,1,experiment,rt,Other,Right,20,1,0,538.4375,467.0
337,RT_6-1,Left,2,Left,596,-46,-15,Sound_1,Incongruent,y,2.0,1,experiment,rt,Other,Right,20,1,0,626.3492063492064,596.0
338,RT_6-1,Right,8,Right,499,46,51,Sound_1,Congruent,y,8.0,1,experiment,rt,Other,Right,20,1,0,546.109375,499.0
339,RT_6-1,Right,1,Right,366,-38,-33,None,Congruent,y,1.0,1,experiment,rt,Other,Right,20,1,0,546.109375,366.0
340,RT_6-1,Left,3,Right,500,7,8,Sound_1,Incongruent,y,3.0,1,experiment,rt,Other,Right,20,0,1,626.3492063492064,500.0
341,RT_6-1,Right,5,Right,833,-42,-37,None,Incongruent,n,,1,experiment,rt,Other,Right,20,1,0,626.3492063492064,833.0
342,RT_6-1,Left,3,Left,499,38,36,None,None,y,3.0,1,experiment,rt,Other,Right,20,1,0,538.4375,499.0
343,RT_6-1,Left,3,Left,566,-3,-2,Sound_1,None,n,,1,experiment,rt,Other,Right,20,1,0,538.4375,566.0
344,RT_6-1,Left,2,Left,636,37,38,None,Incongruent,y,2.0,1,experiment,rt,Other,Right,20,1,0,626.3492063492064,636.0
345,RT_6-1,Left,1,Left,532,-47,-42,Sound_1,Congruent,y,1.0,1,experiment,rt,Other,Right,20,1,0,546.109375,532.0
346,RT_6-1,Right,6,Right,538,40,38,Sound_1,None,y,6.0,1,experiment,rt,Other,Right,20,1,0,538.4375,538.0
347,RT_6-1,Left,6,Left,732,-34,-33,None,None,n,,1,experiment,rt,Other,Right,20,1,0,538.4375,732.0
348,RT_6-1,Right,8,Right,631,44,42,None,Congruent,n,,1,experiment,rt,Other,Right,20,1,0,546.109375,631.0
349,RT_6-1,Right,3,Left,498,-35,-42,None,Incongruent,y,3.0,1,experiment,rt,Other,Right,20,0,1,626.3492063492064,498.0
350,RT_6-1,Left,7,Left,666,3,0,Sound_1,Congruent,n,,1,experiment,rt,Other,Right,20,1,0,546.109375,666.0
351,RT_6-1,Left,5,Left,698,-43,-31,Sound_1,Incongruent,y,5.0,1,experiment,rt,Other,Right,20,1,0,626.3492063492064,698.0
352,RT_6-1,Left,3,Left,665,38,31,Sound_1,Incongruent,n,,1,experiment,rt,Other,Right,20,1,0,626.3492063492064,665.0
353,RT_6-1,Left,6,Left,736,-1,-1,None,Congruent,y,6.0,1,experiment,rt,Other,Right,20,1,0,546.109375,736.0
354,RT_6-1,Right,7,Right,598,58,59,Sound_1,Incongruent,y,7.0,1,experiment,rt,Other,Right,20,1,0,626.3492063492064,598.0
355,RT_6-1,Left,4,Left,599,-34,-43,Sound_1,Incongruent,n,,1,experiment,rt,Other,Right,20,1,0,626.3492063492064,599.0
356,RT_6-1,Right,6,Right,565,5,3,Sound_1,Incongruent,y,6.0,1,experiment,rt,Other,Right,20,1,0,626.3492063492064,565.0
357,RT_6-1,Left,5,Left,732,-36,-36,None,Incongruent,n,,1,experiment,rt,Other,Right,20,1,0,626.3492063492064,732.0
358,RT_6-1,Left,3,Left,798,5,3,None,Incongruent,n,,1,experiment,rt,Other,Right,20,1,0,626.3492063492064,798.0
359,RT_6-1,Right,7,Right,533,47,51,Sound_1,Congruent,n,,1,experiment,rt,Other,Right,20,1,0,546.109375,533.0
360,RT_6-1,Right,7,Right,733,-42,-37,None,None,n,,1,experiment,rt,Other,Right,20,1,0,538.4375,733.0
361,RT_6-1,Right,3,Right,500,5,7,Sound_1,Congruent,n,,1,experiment,rt,Other,Right,20,1,0,546.109375,500.0
362,RT_6-1,Left,1,Left,504,33,31,None,Congruent,y,1.0,1,experiment,rt,Other,Right,20,1,0,546.109375,504.0
363,RT_6-1,Left,7,Left,465,1,0,Sound_1,None,y,7.0,1,experiment,rt,Other,Right,20,1,0,538.4375,465.0
364,RT_6-1,Right,2,Right,500,-36,-30,None,None,y,2.0,1,experiment,rt,Other,Right,20,1,0,538.4375,500.0
365,RT_6-1,Left,4,Left,933,0,-1,None,None,n,,1,experiment,rt,Other,Right,20,1,0,538.4375,933.0
366,RT_6-1,Right,6,Right,568,30,23,None,None,n,,1,experiment,rt,Other,Right,20,1,0,538.4375,568.0
367,RT_6-1,Left,1,Left,698,-37,-36,Sound_1,Incongruent,n,,1,experiment,rt,Other,Right,20,1,0,626.3492063492064,698.0
368,RT_6-1,Right,5,Right,532,45,43,Sound_1,None,n,,1,experiment,rt,Other,Right,20,1,0,538.4375,532.0
369,RT_6-1,Left,6,Left,832,-2,-2,None,Incongruent,n,,1,experiment,rt,Other,Right,20,1,0,626.3492063492064,832.0
370,RT_6-1,Left,8,Left,466,-39,-38,Sound_1,None,n,,1,experiment,rt,Other,Right,20,1,0,538.4375,466.0
371,RT_6-1,Left,1,Left,498,38,36,Sound_1,None,n,,1,experiment,rt,Other,Right,20,1,0,538.4375,498.0
372,RT_6-1,Left,8,Left,465,-55,-56,None,Congruent,y,8.0,1,experiment,rt,Other,Right,20,1,0,546.109375,465.0
373,RT_6-1,Left,2,Right,532,1,0,Sound_1,Incongruent,n,,1,experiment,rt,Other,Right,20,0,1,626.3492063492064,532.0
374,RT_6-1,Left,7,Left,633,52,56,None,Incongruent,n,,1,experiment,rt,Other,Right,20,1,0,626.3492063492064,633.0
375,RT_6-1,Left,3,Left,499,-45,-43,Sound_1,Congruent,n,,1,experiment,rt,Other,Right,20,1,0,546.109375,499.0
376,RT_6-1,Right,8,Left,564,-1,-1,Sound_1,Incongruent,n,,1,experiment,rt,Other,Right,20,0,1,626.3492063492064,564.0
377,RT_6-1,Right,3,Right,531,-42,-40,Sound_1,Congruent,y,3.0,1,experiment,rt,Other,Right,20,1,0,546.109375,531.0
378,RT_6-1,Left,4,Left,600,46,50,Sound_1,None,n,,1,experiment,rt,Other,Right,20,1,0,538.4375,600.0
379,RT_6-1,Left,7,Left,632,-1,0,None,None,n,,1,experiment,rt,Other,Right,20,1,0,538.4375,632.0
380,RT_6-1,Right,8,Right,499,-34,-33,Sound_1,Congruent,n,,1,experiment,rt,Other,Right,20,1,0,546.109375,499.0
381,RT_6-1,Right,5,Right,464,7,2,Sound_1,None,y,5.0,1,experiment,rt,Other,Right,20,1,0,538.4375,464.0
382,RT_6-1,Right,6,Right,566,-36,-36,None,Incongruent,y,6.0,1,experiment,rt,Other,Right,20,1,0,626.3492063492064,566.0
383,RT_6-1,Left,7,Left,499,48,57,Sound_1,None,n,,1,experiment,rt,Other,Right,20,1,0,538.4375,499.0
384,RT_6-1,Right,5,Right,564,-42,-41,Sound_1,Incongruent,y,5.0,1,experiment,rt,Other,Right,20,1,0,626.3492063492064,564.0
385,RT_6-1,Right,2,Right,533,1,0,None,Congruent,y,2.0,1,experiment,rt,Other,Right,20,1,0,546.109375,533.0
386,RT_6-1,Right,6,Right,666,59,13,Sound_1,Incongruent,n,,1,experiment,rt,Other,Right,20,1,0,626.3492063492064,666.0
387,RT_6-1,Right,1,Right,466,-1,-1,Sound_1,None,n,,1,experiment,rt,Other,Right,20,1,0,538.4375,466.0
388,RT_6-1,Left,6,Left,433,-39,-40,None,Incongruent,y,6.0,1,experiment,rt,Other,Right,20,1,0,626.3492063492064,433.0
389,RT_6-1,Left,6,Left,665,58,59,Sound_1,Incongruent,n,,1,experiment,rt,Other,Right,20,1,0,626.3492063492064,665.0
390,RT_6-1,Right,4,Right,464,-1,-3,Sound_1,Congruent,y,4.0,1,experiment,rt,Other,Right,20,1,0,546.109375,464.0
391,RT_6-1,Left,7,Left,500,50,48,None,Congruent,y,7.0,1,experiment,rt,Other,Right,20,1,0,546.109375,500.0
392,RT_6-1,Left,7,Left,498,-39,-38,Sound_1,Congruent,y,7.0,1,experiment,rt,Other,Right,20,1,0,546.109375,498.0
393,RT_6-1,Right,6,Right,566,7,1,Sound_1,Congruent,n,,1,experiment,rt,Other,Right,20,1,0,546.109375,566.0
394,RT_6-1,Left,8,Left,699,46,48,None,None,n,,1,experiment,rt,Other,Right,20,1,0,538.4375,699.0
395,RT_6-1,Right,3,Right,432,0,-1,None,None,y,3.0,1,experiment,rt,Other,Right,20,1,0,538.4375,432.0
396,RT_6-1,Left,3,Left,665,-33,-36,None,None,n,,1,experiment,rt,Other,Right,20,1,0,538.4375,665.0
397,RT_6-1,Right,4,Right,598,1,0,None,Incongruent,y,4.0,1,experiment,rt,Other,Right,20,1,0,626.3492063492064,598.0
398,RT_6-1,Right,8,Right,499,-32,-31,None,None,y,8.0,1,experiment,rt,Other,Right,20,1,0,538.4375,499.0
399,RT_6-1,Right,4,Right,530,52,56,Sound_1,Congruent,n,,1,experiment,rt,Other,Right,20,1,0,546.109375,530.0
400,RT_6-1,Right,1,Right,665,-34,-44,Sound_1,Incongruent,n,,1,experiment,rt,Other,Right,20,1,0,626.3492063492064,665.0
401,RT_6-1,Right,1,Right,632,4,0,None,Congruent,n,,1,experiment,rt,Other,Right,20,1,0,546.109375,632.0
402,RT_6-1,Right,3,Right,399,40,41,Sound_1,None,y,3.0,1,experiment,rt,Other,Right,20,1,0,538.4375,399.0
403,RT_6-1,Right,5,Right,532,-42,-37,Sound_1,Congruent,n,,1,experiment,rt,Other,Right,20,1,0,546.109375,532.0
404,RT_6-1,Right,5,Right,632,36,36,None,Congruent,n,,1,experiment,rt,Other,Right,20,1,0,546.109375,632.0
405,RT_6-1,Right,5,Right,599,-2,-4,None,None,n,,1,experiment,rt,Other,Right,20,1,0,538.4375,599.0
406,RT_6-1,Left,1,Left,766,52,55,None,Incongruent,n,,1,experiment,rt,Other,Right,20,1,0,626.3492063492064,766.0
407,RT_6-1,Right,4,Right,597,-34,-29,None,Congruent,y,4.0,1,experiment,rt,Other,Right,20,1,0,546.109375,597.0
408,RT_6-1,Left,5,Left,533,46,33,Sound_1,Congruent,n,,1,experiment,rt,Other,Right,20,1,0,546.109375,533.0
409,RT_6-1,Right,8,Right,403,-2,-2,Sound_1,None,y,8.0,1,experiment,rt,Other,Right,20,1,0,538.4375,403.0
410,RT_6-1,Right,2,Right,398,37,37,Sound_1,Congruent,y,2.0,1,experiment,rt,Other,Right,20,1,0,546.109375,398.0
411,RT_6-1,Left,8,Left,930,-1,-3,Sound_1,Incongruent,n,,1,experiment,rt,Other,Right,20,1,0,626.3492063492064,930.0
412,RT_6-1,Right,6,Right,599,-36,-32,None,Congruent,n,,1,experiment,rt,Other,Right,20,1,0,546.109375,599.0
413,RT_6-1,Right,6,Right,535,5,2,None,None,y,6.0,1,experiment,rt,Other,Right,20,1,0,538.4375,535.0
414,RT_6-1,Right,1,Right,368,37,36,Sound_1,Incongruent,y,1.0,1,experiment,rt,Other,Right,20,1,0,626.3492063492064,368.0
415,RT_6-1,Left,8,Left,631,-1,0,None,Congruent,n,,1,experiment,rt,Other,Right,20,1,0,546.109375,631.0
416,RT_6-1,Left,2,Left,735,37,37,None,None,n,,1,experiment,rt,Other,Right,20,1,0,538.4375,735.0
417,RT_6-1,Left,1,Left,599,-1,0,None,Incongruent,y,1.0,1,experiment,rt,Other,Right,20,1,0,626.3492063492064,599.0
418,RT_6-1,Right,8,Right,765,-32,-31,None,Incongruent,n,,1,experiment,rt,Other,Right,20,1,0,626.3492063492064,765.0
419,RT_6-1,Right,7,Right,532,0,-1,Sound_1,Congruent,y,7.0,1,experiment,rt,Other,Right,20,1,0,546.109375,532.0
420,RT_6-1,Left,5,Left,466,-35,-34,None,Congruent,y,5.0,1,experiment,rt,Other,Right,20,1,0,546.109375,466.0
421,RT_6-1,Left,8,Left,567,0,1,None,None,y,8.0,1,experiment,rt,Other,Right,20,1,0,538.4375,567.0
422,RT_6-1,Left,3,Right,332,-34,-33,Sound_1,None,y,3.0,1,experiment,rt,Other,Right,20,0,1,538.4375,332.0
423,RT_6-1,Right,7,Right,666,-1,0,None,Incongruent,y,7.0,1,experiment,rt,Other,Right,20,1,0,626.3492063492064,666.0
424,RT_6-1,Left,8,Left,532,35,32,Sound_1,Congruent,n,,1,experiment,rt,Other,Right,20,1,0,546.109375,532.0
425,RT_6-1,Right,8,Right,436,-7,-6,None,Congruent,y,8.0,1,experiment,rt,Other,Right,20,1,0,546.109375,436.0
426,RT_6-1,Right,1,Right,532,34,36,Sound_1,Congruent,n,,1,experiment,rt,Other,Right,20,1,0,546.109375,532.0
427,RT_6-1,Right,2,Right,831,0,3,Sound_1,None,y,2.0,1,experiment,rt,Other,Right,20,1,0,538.4375,831.0
428,RT_6-1,Left,6,Left,467,30,31,None,None,y,6.0,1,experiment,rt,Other,Right,20,1,0,538.4375,467.0
429,RT_6-1,Right,2,Right,466,-38,-39,Sound_1,Congruent,n,,1,experiment,rt,Other,Right,20,1,0,546.109375,466.0
430,RT_6-1,Right,3,None,1001,4,6,None,Incongruent,n,,1,experiment,rt,Other,Right,20,0,1,626.3492063492064,626.3492063492064
431,RT_6-1,Left,4,Left,667,37,36,None,Incongruent,n,,1,experiment,rt,Other,Right,20,1,0,626.3492063492064,667.0
456,RT_5-1,Right,1,Right,932,0,3,None,Congruent,n,,1,experiment,rt,Female,Right,21,1,0,631.921875,932.0
457,RT_5-1,Left,8,Left,332,45,42,None,Incongruent,y,8.0,1,experiment,rt,Female,Right,21,1,0,726.0833333333334,332.0
458,RT_5-1,Left,8,Left,664,-2,-5,None,None,y,8.0,1,experiment,rt,Female,Right,21,1,0,638.828125,664.0
459,RT_5-1,Right,1,Right,666,-43,-49,None,Congruent,y,1.0,1,experiment,rt,Female,Right,21,1,0,631.921875,666.0
460,RT_5-1,Left,3,Left,565,0,1,Sound_1,None,n,,1,experiment,rt,Female,Right,21,1,0,638.828125,565.0
461,RT_5-1,Left,4,Left,764,34,30,Sound_1,Incongruent,y,4.0,1,experiment,rt,Female,Right,21,1,0,726.0833333333334,764.0
462,RT_5-1,Right,3,Right,632,-31,-31,None,Incongruent,y,3.0,1,experiment,rt,Female,Right,21,1,0,726.0833333333334,632.0
463,RT_5-1,Right,7,Right,633,1,0,Sound_1,None,n,,1,experiment,rt,Female,Right,21,1,0,638.828125,633.0
464,RT_5-1,Left,6,Left,430,35,34,None,None,y,6.0,1,experiment,rt,Female,Right,21,1,0,638.828125,430.0
465,RT_5-1,Left,4,Left,931,-41,-40,Sound_1,Incongruent,n,,1,experiment,rt,Female,Right,21,1,0,726.0833333333334,931.0
466,RT_5-1,Left,7,Left,666,3,1,Sound_1,Congruent,n,,1,experiment,rt,Female,Right,21,1,0,631.921875,666.0
467,RT_5-1,Right,8,Right,832,-37,-49,None,Incongruent,n,,1,experiment,rt,Female,Right,21,1,0,726.0833333333334,832.0
468,RT_5-1,Left,5,Left,697,38,36,None,None,n,,1,experiment,rt,Female,Right,21,1,0,638.828125,697.0
469,RT_5-1,Left,2,Left,497,-2,-2,Sound_1,Congruent,y,2.0,1,experiment,rt,Female,Right,21,1,0,631.921875,497.0
470,RT_5-1,Left,8,Left,833,-31,-32,None,Incongruent,n,,1,experiment,rt,Female,Right,21,1,0,726.0833333333334,833.0
471,RT_5-1,Right,8,Right,602,44,41,Sound_1,None,n,,1,experiment,rt,Female,Right,21,1,0,638.828125,602.0
472,RT_5-1,Left,3,Left,632,-1,-3,Sound_1,Incongruent,y,3.0,1,experiment,rt,Female,Right,21,1,0,726.0833333333334,632.0
473,RT_5-1,Right,6,Right,831,-31,-28,None,Incongruent,y,6.0,1,experiment,rt,Female,Right,21,1,0,726.0833333333334,831.0
474,RT_5-1,Left,3,Left,799,40,43,Sound_1,Incongruent,n,,1,experiment,rt,Female,Right,21,1,0,726.0833333333334,799.0
475,RT_5-1,Right,5,Right,897,-52,-33,Sound_1,Incongruent,y,5.0,1,experiment,rt,Female,Right,21,1,0,726.0833333333334,897.0
476,RT_5-1,Right,5,Right,866,57,55,None,Incongruent,y,5.0,1,experiment,rt,Female,Right,21,1,0,726.0833333333334,866.0
477,RT_5-1,Left,2,Left,799,-44,-41,None,Congruent,y,2.0,1,experiment,rt,Female,Right,21,1,0,631.921875,799.0
478,RT_5-1,Left,7,Left,597,-5,-5,Sound_1,None,y,7.0,1,experiment,rt,Female,Right,21,1,0,638.828125,597.0
479,RT_5-1,Left,2,Left,999,-50,-51,None,Incongruent,n,,1,experiment,rt,Female,Right,21,1,0,726.0833333333334,999.0
480,RT_5-1,Left,5,Left,603,43,43,None,Incongruent,y,5.0,1,experiment,rt,Female,Right,21,1,0,726.0833333333334,603.0
481,RT_5-1,Right,2,Right,665,0,1,Sound_1,Incongruent,n,,1,experiment,rt,Female,Right,21,1,0,726.0833333333334,665.0
482,RT_5-1,Right,4,Right,966,-47,-42,None,None,n,,1,experiment,rt,Female,Right,21,1,0,638.828125,966.0
483,RT_5-1,Left,1,Left,632,1,1,Sound_1,Congruent,n,,1,experiment,rt,Female,Right,21,1,0,631.921875,632.0
484,RT_5-1,Right,5,Right,898,50,37,Sound_1,None,n,,1,experiment,rt,Female,Right,21,1,0,638.828125,898.0
485,RT_5-1,Right,3,Right,535,1,2,Sound_1,Congruent,n,,1,experiment,rt,Female,Right,21,1,0,631.921875,535.0
486,RT_5-1,Right,7,Right,567,41,39,Sound_1,Congruent,n,,1,experiment,rt,Female,Right,21,1,0,631.921875,567.0
487,RT_5-1,Left,3,Left,832,-42,-38,None,None,n,,1,experiment,rt,Female,Right,21,1,0,638.828125,832.0
488,RT_5-1,Right,5,Right,698,9,10,Sound_1,Incongruent,n,,1,experiment,rt,Female,Right,21,1,0,726.0833333333334,698.0
489,RT_5-1,Left,8,Left,666,-36,-40,Sound_1,None,n,,1,experiment,rt,Female,Right,21,1,0,638.828125,666.0
490,RT_5-1,Left,3,Left,498,5,1,None,Congruent,y,3.0,1,experiment,rt,Female,Right,21,1,0,631.921875,498.0
491,RT_5-1,Right,7,Right,533,-40,-39,None,Congruent,y,7.0,1,experiment,rt,Female,Right,21,1,0,631.921875,533.0
492,RT_5-1,Left,8,Left,632,4,0,Sound_1,Incongruent,n,,1,experiment,rt,Female,Right,21,1,0,726.0833333333334,632.0
493,RT_5-1,Left,6,Left,665,-45,-42,None,None,n,,1,experiment,rt,Female,Right,21,1,0,638.828125,665.0
494,RT_5-1,Right,8,Right,468,39,40,Sound_1,Congruent,y,8.0,1,experiment,rt,Female,Right,21,1,0,631.921875,468.0
495,RT_5-1,Left,6,Left,569,-8,-7,None,Congruent,y,6.0,1,experiment,rt,Female,Right,21,1,0,631.921875,569.0
496,RT_5-1,Left,1,None,1001,47,36,None,Incongruent,n,,1,experiment,rt,Female,Right,21,0,1,726.0833333333334,726.0833333333334
497,RT_5-1,Right,8,Right,529,-5,-2,Sound_1,None,y,8.0,1,experiment,rt,Female,Right,21,1,0,638.828125,529.0
498,RT_5-1,Right,1,Right,798,47,54,None,Incongruent,n,,1,experiment,rt,Female,Right,21,1,0,726.0833333333334,798.0
499,RT_5-1,Left,4,Left,832,-35,-40,None,Congruent,n,,1,experiment,rt,Female,Right,21,1,0,631.921875,832.0
500,RT_5-1,Left,3,Left,797,51,45,Sound_1,Congruent,y,3.0,1,experiment,rt,Female,Right,21,1,0,631.921875,797.0
501,RT_5-1,Right,4,Right,565,-1,-3,Sound_1,None,n,,1,experiment,rt,Female,Right,21,1,0,638.828125,565.0
502,RT_5-1,Right,1,Right,666,54,47,Sound_1,Congruent,n,,1,experiment,rt,Female,Right,21,1,0,631.921875,666.0
503,RT_5-1,Left,5,Left,499,-38,-36,Sound_1,None,n,,1,experiment,rt,Female,Right,21,1,0,638.828125,499.0
504,RT_5-1,Left,2,Left,464,48,48,Sound_1,None,y,2.0,1,experiment,rt,Female,Right,21,1,0,638.828125,464.0
505,RT_5-1,Left,5,Left,832,-7,-8,Sound_1,Incongruent,n,,1,experiment,rt,Female,Right,21,1,0,726.0833333333334,832.0
506,RT_5-1,Left,3,Left,531,-47,-43,Sound_1,None,y,3.0,1,experiment,rt,Female,Right,21,1,0,638.828125,531.0
507,RT_5-1,Right,3,Right,465,0,0,None,None,y,3.0,1,experiment,rt,Female,Right,21,1,0,638.828125,465.0
508,RT_5-1,Left,5,Left,666,43,39,Sound_1,Congruent,n,,1,experiment,rt,Female,Right,21,1,0,631.921875,666.0
509,RT_5-1,Right,5,Right,999,-51,-49,None,Incongruent,n,,1,experiment,rt,Female,Right,21,1,0,726.0833333333334,999.0
510,RT_5-1,Right,6,Right,565,3,3,None,None,y,6.0,1,experiment,rt,Female,Right,21,1,0,638.828125,565.0
511,RT_5-1,Right,6,Right,564,-53,-50,Sound_1,Congruent,y,6.0,1,experiment,rt,Female,Right,21,1,0,631.921875,564.0
512,RT_5-1,Left,2,Left,572,4,-6,None,None,y,2.0,1,experiment,rt,Female,Right,21,1,0,638.828125,572.0
513,RT_5-1,Right,7,Right,563,-50,-46,Sound_1,None,y,7.0,1,experiment,rt,Female,Right,21,1,0,638.828125,563.0
514,RT_5-1,Left,6,Left,533,38,44,Sound_1,Incongruent,n,,1,experiment,rt,Female,Right,21,1,0,726.0833333333334,533.0
515,RT_5-1,Right,4,Right,633,-43,-46,Sound_1,None,y,4.0,1,experiment,rt,Female,Right,21,1,0,638.828125,633.0
516,RT_5-1,Left,6,Left,465,52,49,Sound_1,Congruent,y,6.0,1,experiment,rt,Female,Right,21,1,0,631.921875,465.0
517,RT_5-1,Right,7,Right,699,2,1,None,Congruent,n,,1,experiment,rt,Female,Right,21,1,0,631.921875,699.0
518,RT_5-1,Right,3,Right,733,47,37,Sound_1,Incongruent,n,,1,experiment,rt,Female,Right,21,1,0,726.0833333333334,733.0
519,RT_5-1,Left,1,Left,531,-49,-50,Sound_1,Congruent,y,1.0,1,experiment,rt,Female,Right,21,1,0,631.921875,531.0
520,RT_5-1,Left,8,Left,699,2,6,None,Congruent,n,,1,experiment,rt,Female,Right,21,1,0,631.921875,699.0
521,RT_5-1,Left,1,Left,733,-44,-45,None,Congruent,n,,1,experiment,rt,Female,Right,21,1,0,631.921875,733.0
522,RT_5-1,Right,2,Right,633,37,40,Sound_1,None,n,,1,experiment,rt,Female,Right,21,1,0,638.828125,633.0
523,RT_5-1,Right,1,Right,498,-5,-3,Sound_1,Congruent,y,1.0,1,experiment,rt,Female,Right,21,1,0,631.921875,498.0
524,RT_5-1,Left,7,Left,799,47,44,None,Incongruent,n,,1,experiment,rt,Female,Right,21,1,0,726.0833333333334,799.0
525,RT_5-1,Right,3,Right,700,-35,-33,None,Congruent,n,,1,experiment,rt,Female,Right,21,1,0,631.921875,700.0
526,RT_5-1,Right,4,Right,598,4,3,None,Incongruent,y,4.0,1,experiment,rt,Female,Right,21,1,0,726.0833333333334,598.0
527,RT_5-1,Right,6,Right,600,-50,-47,Sound_1,None,n,,1,experiment,rt,Female,Right,21,1,0,638.828125,600.0
528,RT_5-1,Left,7,Left,634,50,46,Sound_1,Incongruent,y,7.0,1,experiment,rt,Female,Right,21,1,0,726.0833333333334,634.0
529,RT_5-1,Left,6,Left,934,-7,-10,None,Incongruent,n,,1,experiment,rt,Female,Right,21,1,0,726.0833333333334,934.0
530,RT_5-1,Right,7,Right,733,-56,-54,None,None,n,,1,experiment,rt,Female,Right,21,1,0,638.828125,733.0
531,RT_5-1,Right,6,Right,566,3,2,Sound_1,Congruent,n,,1,experiment,rt,Female,Right,21,1,0,631.921875,566.0
532,RT_5-1,Right,4,Right,665,49,50,Sound_1,Incongruent,y,4.0,1,experiment,rt,Female,Right,21,1,0,726.0833333333334,665.0
533,RT_5-1,Left,8,Left,631,-5,-10,Sound_1,Congruent,y,8.0,1,experiment,rt,Female,Right,21,1,0,631.921875,631.0
534,RT_5-1,Right,1,Right,667,37,37,Sound_1,Incongruent,y,1.0,1,experiment,rt,Female,Right,21,1,0,726.0833333333334,667.0
535,RT_5-1,Right,4,Right,566,-34,-34,None,Congruent,y,4.0,1,experiment,rt,Female,Right,21,1,0,631.921875,566.0
536,RT_5-1,Right,8,Right,699,43,44,None,Congruent,n,,1,experiment,rt,Female,Right,21,1,0,631.921875,699.0
537,RT_5-1,Left,1,Left,564,0,-8,Sound_1,None,y,1.0,1,experiment,rt,Female,Right,21,1,0,638.828125,564.0
538,RT_5-1,Left,6,Left,665,-48,-49,Sound_1,Congruent,n,,1,experiment,rt,Female,Right,21,1,0,631.921875,665.0
539,RT_5-1,Right,7,Right,566,51,56,None,None,y,7.0,1,experiment,rt,Female,Right,21,1,0,638.828125,566.0
540,RT_5-1,Right,1,Right,666,-5,1,None,Incongruent,y,1.0,1,experiment,rt,Female,Right,21,1,0,726.0833333333334,666.0
541,RT_5-1,Left,3,Left,567,-57,-57,Sound_1,Congruent,n,,1,experiment,rt,Female,Right,21,1,0,631.921875,567.0
542,RT_5-1,Right,4,Right,535,5,5,Sound_1,Congruent,y,4.0,1,experiment,rt,Female,Right,21,1,0,631.921875,535.0
543,RT_5-1,Right,8,Right,798,58,53,None,Incongruent,y,8.0,1,experiment,rt,Female,Right,21,1,0,726.0833333333334,798.0
544,RT_5-1,Right,2,Right,465,2,2,Sound_1,None,y,2.0,1,experiment,rt,Female,Right,21,1,0,638.828125,465.0
545,RT_5-1,Left,8,Left,998,37,29,None,None,n,,1,experiment,rt,Female,Right,21,1,0,638.828125,998.0
546,RT_5-1,Right,8,Right,701,-2,-6,None,None,n,,1,experiment,rt,Female,Right,21,1,0,638.828125,701.0
547,RT_5-1,Left,1,Left,665,49,46,Sound_1,None,n,,1,experiment,rt,Female,Right,21,1,0,638.828125,665.0
548,RT_5-1,Right,8,Right,565,-42,-37,Sound_1,Congruent,n,,1,experiment,rt,Female,Right,21,1,0,631.921875,565.0
549,RT_5-1,Right,3,Right,499,56,56,None,Congruent,y,3.0,1,experiment,rt,Female,Right,21,1,0,631.921875,499.0
550,RT_5-1,Right,6,Right,738,-44,-44,None,Congruent,n,,1,experiment,rt,Female,Right,21,1,0,631.921875,738.0
551,RT_5-1,Right,2,Right,666,53,54,None,Congruent,n,,1,experiment,rt,Female,Right,21,1,0,631.921875,666.0
552,RT_5-1,Left,4,Left,563,-48,-44,Sound_1,Congruent,y,4.0,1,experiment,rt,Female,Right,21,1,0,631.921875,563.0
553,RT_5-1,Left,7,Left,765,1,0,None,Incongruent,y,7.0,1,experiment,rt,Female,Right,21,1,0,726.0833333333334,765.0
554,RT_5-1,Left,8,Left,671,-51,-50,None,Congruent,y,8.0,1,experiment,rt,Female,Right,21,1,0,631.921875,671.0
555,RT_5-1,Left,5,Left,700,7,2,None,Congruent,n,,1,experiment,rt,Female,Right,21,1,0,631.921875,700.0
556,RT_5-1,Right,2,Right,664,-49,-46,Sound_1,Incongruent,y,2.0,1,experiment,rt,Female,Right,21,1,0,726.0833333333334,664.0
557,RT_5-1,Right,3,Right,466,0,0,Sound_1,Incongruent,y,3.0,1,experiment,rt,Female,Right,21,1,0,726.0833333333334,466.0
558,RT_5-1,Right,2,Right,467,43,44,None,Incongruent,y,2.0,1,experiment,rt,Female,Right,21,1,0,726.0833333333334,467.0
559,RT_5-1,Right,1,Right,566,-52,-52,Sound_1,Incongruent,n,,1,experiment,rt,Female,Right,21,1,0,726.0833333333334,566.0
560,RT_5-1,Right,4,Right,633,38,36,Sound_1,Congruent,n,,1,experiment,rt,Female,Right,21,1,0,631.921875,633.0
561,RT_5-1,Left,5,Left,801,-55,-52,None,Incongruent,n,,1,experiment,rt,Female,Right,21,1,0,726.0833333333334,801.0
562,RT_5-1,Left,4,Left,598,-2,-2,Sound_1,None,y,4.0,1,experiment,rt,Female,Right,21,1,0,638.828125,598.0
563,RT_5-1,Right,4,Right,665,-51,-51,Sound_1,Incongruent,n,,1,experiment,rt,Female,Right,21,1,0,726.0833333333334,665.0
564,RT_5-1,Right,6,Right,564,50,51,Sound_1,None,y,6.0,1,experiment,rt,Female,Right,21,1,0,638.828125,564.0
565,RT_5-1,Left,5,Left,864,-51,-52,Sound_1,Incongruent,y,5.0,1,experiment,rt,Female,Right,21,1,0,726.0833333333334,864.0
566,RT_5-1,Right,6,Right,699,38,38,None,Congruent,y,6.0,1,experiment,rt,Female,Right,21,1,0,631.921875,699.0
567,RT_5-1,Right,1,Right,732,-42,-46,None,None,n,,1,experiment,rt,Female,Right,21,1,0,638.828125,732.0
568,RT_5-1,Left,5,Left,664,1,0,Sound_1,Congruent,y,5.0,1,experiment,rt,Female,Right,21,1,0,631.921875,664.0
569,RT_5-1,Left,7,Left,866,-42,-44,None,Congruent,n,,1,experiment,rt,Female,Right,21,1,0,631.921875,866.0
570,RT_5-1,Left,5,Left,499,-1,-2,None,None,y,5.0,1,experiment,rt,Female,Right,21,1,0,638.828125,499.0
571,RT_5-1,Right,6,Right,733,46,48,None,None,n,,1,experiment,rt,Female,Right,21,1,0,638.828125,733.0
572,RT_5-1,Left,6,Left,531,-53,-55,Sound_1,None,y,6.0,1,experiment,rt,Female,Right,21,1,0,638.828125,531.0
573,RT_5-1,Right,3,Right,732,1,2,None,Incongruent,n,,1,experiment,rt,Female,Right,21,1,0,726.0833333333334,732.0
574,RT_5-1,Left,8,Left,565,46,46,Sound_1,None,y,8.0,1,experiment,rt,Female,Right,21,1,0,638.828125,565.0
575,RT_5-1,Left,6,Left,532,0,0,Sound_1,None,n,,1,experiment,rt,Female,Right,21,1,0,638.828125,532.0
576,RT_5-1,Left,7,Left,564,-50,-44,Sound_1,Congruent,y,7.0,1,experiment,rt,Female,Right,21,1,0,631.921875,564.0
577,RT_5-1,Right,8,Right,599,0,0,None,Congruent,y,8.0,1,experiment,rt,Female,Right,21,1,0,631.921875,599.0
578,RT_5-1,Left,4,Left,599,53,50,None,Congruent,y,4.0,1,experiment,rt,Female,Right,21,1,0,631.921875,599.0
579,RT_5-1,Left,4,Left,832,-4,-5,None,Incongruent,y,4.0,1,experiment,rt,Female,Right,21,1,0,726.0833333333334,832.0
580,RT_5-1,Left,5,Left,498,33,26,Sound_1,None,y,5.0,1,experiment,rt,Female,Right,21,1,0,638.828125,498.0
581,RT_5-1,Left,6,Left,564,-1,-4,Sound_1,Incongruent,y,6.0,1,experiment,rt,Female,Right,21,1,0,726.0833333333334,564.0
582,RT_5-1,Right,5,Right,699,47,47,None,Congruent,n,,1,experiment,rt,Female,Right,21,1,0,631.921875,699.0
583,RT_5-1,Right,5,Right,666,-3,0,None,Congruent,y,5.0,1,experiment,rt,Female,Right,21,1,0,631.921875,666.0
584,RT_5-1,Right,4,Right,732,51,55,None,Incongruent,n,,1,experiment,rt,Female,Right,21,1,0,726.0833333333334,732.0
585,RT_5-1,Right,3,Right,631,-37,-36,Sound_1,Congruent,y,3.0,1,experiment,rt,Female,Right,21,1,0,631.921875,631.0
586,RT_5-1,Left,1,Left,697,30,15,Sound_1,Incongruent,y,1.0,1,experiment,rt,Female,Right,21,1,0,726.0833333333334,697.0
587,RT_5-1,Right,7,Right,700,-48,-46,Sound_1,Incongruent,n,,1,experiment,rt,Female,Right,21,1,0,726.0833333333334,700.0
588,RT_5-1,Right,2,Right,499,4,5,None,Congruent,y,2.0,1,experiment,rt,Female,Right,21,1,0,631.921875,499.0
589,RT_5-1,Left,3,Left,699,47,45,None,None,y,3.0,1,experiment,rt,Female,Right,21,1,0,638.828125,699.0
590,RT_5-1,Right,5,Right,665,-10,-9,Sound_1,None,y,5.0,1,experiment,rt,Female,Right,21,1,0,638.828125,665.0
591,RT_5-1,Left,2,Left,665,39,37,Sound_1,Congruent,n,,1,experiment,rt,Female,Right,21,1,0,631.921875,665.0
592,RT_5-1,Left,2,Left,531,-50,-50,Sound_1,Incongruent,y,2.0,1,experiment,rt,Female,Right,21,1,0,726.0833333333334,531.0
593,RT_5-1,Right,4,Right,533,32,32,None,None,y,4.0,1,experiment,rt,Female,Right,21,1,0,638.828125,533.0
594,RT_5-1,Left,1,Left,666,-5,-6,None,Incongruent,y,1.0,1,experiment,rt,Female,Right,21,1,0,726.0833333333334,666.0
595,RT_5-1,Left,2,Left,965,49,47,None,Incongruent,y,2.0,1,experiment,rt,Female,Right,21,1,0,726.0833333333334,965.0
596,RT_5-1,Left,2,Left,998,-2,-8,Sound_1,Incongruent,n,,1,experiment,rt,Female,Right,21,1,0,726.0833333333334,998.0
597,RT_5-1,Left,1,Left,699,43,42,None,Congruent,y,1.0,1,experiment,rt,Female,Right,21,1,0,631.921875,699.0
598,RT_5-1,Right,6,Right,900,-3,0,None,Incongruent,n,,1,experiment,rt,Female,Right,21,1,0,726.0833333333334,900.0
599,RT_5-1,Right,3,Left,566,-47,-45,Sound_1,None,n,,1,experiment,rt,Female,Right,21,0,1,638.828125,566.0
600,RT_5-1,Left,7,Left,666,45,48,Sound_1,None,n,,1,experiment,rt,Female,Right,21,1,0,638.828125,666.0
601,RT_5-1,Left,7,None,1001,-32,-31,Sound_1,Incongruent,n,,1,experiment,rt,Female,Right,21,0,1,726.0833333333334,726.0833333333334
602,RT_5-1,Right,3,Right,666,37,39,None,None,n,,1,experiment,rt,Female,Right,21,1,0,638.828125,666.0
603,RT_5-1,Left,2,Left,600,-49,-46,Sound_1,None,n,,1,experiment,rt,Female,Right,21,1,0,638.828125,600.0
604,RT_5-1,Left,8,Left,532,44,51,Sound_1,Congruent,n,,1,experiment,rt,Female,Right,21,1,0,631.921875,532.0
605,RT_5-1,Right,5,Right,600,-44,-42,Sound_1,Congruent,n,,1,experiment,rt,Female,Right,21,1,0,631.921875,600.0
606,RT_5-1,Right,1,Right,665,1,0,Sound_1,None,n,,1,experiment,rt,Female,Right,21,1,0,638.828125,665.0
607,RT_5-1,Left,2,Left,899,36,30,None,None,n,,1,experiment,rt,Female,Right,21,1,0,638.828125,899.0
608,RT_5-1,Left,7,Left,632,-5,-9,None,None,n,,1,experiment,rt,Female,Right,21,1,0,638.828125,632.0
609,RT_5-1,Right,5,Right,566,-47,-44,None,None,y,5.0,1,experiment,rt,Female,Right,21,1,0,638.828125,566.0
610,RT_5-1,Left,2,Left,700,-2,-11,None,Congruent,n,,1,experiment,rt,Female,Right,21,1,0,631.921875,700.0
611,RT_5-1,Left,7,Left,599,49,38,None,Congruent,y,7.0,1,experiment,rt,Female,Right,21,1,0,631.921875,599.0
612,RT_5-1,Left,8,Left,731,-35,-33,Sound_1,Incongruent,y,8.0,1,experiment,rt,Female,Right,21,1,0,726.0833333333334,731.0
613,RT_5-1,Left,3,Left,733,49,48,None,Congruent,n,,1,experiment,rt,Female,Right,21,1,0,631.921875,733.0
614,RT_5-1,Left,4,Left,665,-2,-4,Sound_1,Congruent,n,,1,experiment,rt,Female,Right,21,1,0,631.921875,665.0
615,RT_5-1,Right,2,Right,532,-55,-51,None,None,y,2.0,1,experiment,rt,Female,Right,21,1,0,638.828125,532.0
616,RT_5-1,Right,1,Right,498,39,35,None,None,y,1.0,1,experiment,rt,Female,Right,21,1,0,638.828125,498.0
617,RT_5-1,Right,2,Right,532,-43,-45,Sound_1,Congruent,n,,1,experiment,rt,Female,Right,21,1,0,631.921875,532.0
618,RT_5-1,Right,8,Right,666,0,-3,Sound_1,Incongruent,n,,1,experiment,rt,Female,Right,21,1,0,726.0833333333334,666.0
619,RT_5-1,Right,6,Right,598,39,32,Sound_1,Incongruent,n,,1,experiment,rt,Female,Right,21,1,0,726.0833333333334,598.0
620,RT_5-1,Left,3,Left,666,-42,-43,None,Incongruent,y,3.0,1,experiment,rt,Female,Right,21,1,0,726.0833333333334,666.0
621,RT_5-1,Right,5,Right,733,-1,-1,None,None,n,,1,experiment,rt,Female,Right,21,1,0,638.828125,733.0
622,RT_5-1,Right,2,Right,497,39,37,Sound_1,Congruent,y,2.0,1,experiment,rt,Female,Right,21,1,0,631.921875,497.0
623,RT_5-1,Right,8,Right,732,-39,-23,Sound_1,Incongruent,y,8.0,1,experiment,rt,Female,Right,21,1,0,726.0833333333334,732.0
624,RT_5-1,Left,4,Left,765,2,6,None,None,n,,1,experiment,rt,Female,Right,21,1,0,638.828125,765.0
625,RT_5-1,Right,7,Right,599,51,51,Sound_1,Incongruent,y,7.0,1,experiment,rt,Female,Right,21,1,0,726.0833333333334,599.0
626,RT_5-1,Left,3,Left,799,0,-3,None,Incongruent,n,,1,experiment,rt,Female,Right,21,1,0,726.0833333333334,799.0
627,RT_5-1,Right,7,Right,800,40,41,None,Incongruent,n,,1,experiment,rt,Female,Right,21,1,0,726.0833333333334,800.0
628,RT_5-1,Right,7,Right,598,0,-3,Sound_1,Congruent,y,7.0,1,experiment,rt,Female,Right,21,1,0,631.921875,598.0
629,RT_5-1,Right,2,None,1001,-39,-36,None,Incongruent,n,,1,experiment,rt,Female,Right,21,0,1,726.0833333333334,726.0833333333334
630,RT_5-1,Right,5,Right,564,50,43,Sound_1,Congruent,y,5.0,1,experiment,rt,Female,Right,21,1,0,631.921875,564.0
631,RT_5-1,Left,6,Left,468,-57,-47,None,Incongruent,y,6.0,1,experiment,rt,Female,Right,21,1,0,726.0833333333334,468.0
632,RT_5-1,Left,4,Left,633,37,38,Sound_1,None,n,,1,experiment,rt,Female,Right,21,1,0,638.828125,633.0
633,RT_5-1,Right,4,Right,699,7,5,None,Congruent,n,,1,experiment,rt,Female,Right,21,1,0,631.921875,699.0
634,RT_5-1,Left,7,Left,500,-38,-34,None,None,y,7.0,1,experiment,rt,Female,Right,21,1,0,638.828125,500.0
635,RT_5-1,Left,1,Left,766,1,2,None,None,n,,1,experiment,rt,Female,Right,21,1,0,638.828125,766.0
636,RT_5-1,Left,1,Left,897,-41,-35,None,None,y,1.0,1,experiment,rt,Female,Right,21,1,0,638.828125,897.0
637,RT_5-1,Right,2,Right,732,6,7,None,None,n,,1,experiment,rt,Female,Right,21,1,0,638.828125,732.0
638,RT_5-1,Right,8,Right,998,-33,-31,None,None,y,8.0,1,experiment,rt,Female,Right,21,1,0,638.828125,998.0
639,RT_5-1,Right,6,Right,731,5,6,Sound_1,Incongruent,y,6.0,1,experiment,rt,Female,Right,21,1,0,726.0833333333334,731.0
640,RT_5-1,Right,1,Right,698,-42,-33,Sound_1,None,y,1.0,1,experiment,rt,Female,Right,21,1,0,638.828125,698.0
641,RT_5-1,Left,6,Left,833,34,32,None,Congruent,n,,1,experiment,rt,Female,Right,21,1,0,631.921875,833.0
642,RT_5-1,Left,1,Left,899,-48,-41,Sound_1,Incongruent,n,,1,experiment,rt,Female,Right,21,1,0,726.0833333333334,899.0
643,RT_5-1,Right,7,Right,699,5,3,None,Incongruent,y,7.0,1,experiment,rt,Female,Right,21,1,0,726.0833333333334,699.0
644,RT_5-1,Left,4,Left,766,-43,-49,None,None,y,4.0,1,experiment,rt,Female,Right,21,1,0,638.828125,766.0
645,RT_5-1,Right,3,Right,432,42,42,Sound_1,None,y,3.0,1,experiment,rt,Female,Right,21,1,0,638.828125,432.0
646,RT_5-1,Left,5,Left,565,-52,-48,None,Congruent,y,5.0,1,experiment,rt,Female,Right,21,1,0,631.921875,565.0
647,RT_5-1,Left,4,None,1001,55,53,None,Incongruent,n,,1,experiment,rt,Female,Right,21,0,1,726.0833333333334,726.0833333333334
672,RT_4-1,Left,7,Left,565,46,47,None,Congruent,y,7.0,1,experiment,rt,Male,Left,21,1,0,539.71875,565.0
673,RT_4-1,Left,5,Left,466,-1,0,Sound_1,Incongruent,n,,1,experiment,rt,Male,Left,21,1,0,604.765625,466.0
674,RT_4-1,Right,2,Right,465,42,45,Sound_1,Congruent,y,2.0,1,experiment,rt,Male,Left,21,1,0,539.71875,465.0
675,RT_4-1,Right,2,Left,533,2,0,None,None,n,,1,experiment,rt,Male,Left,21,0,1,532.390625,533.0
676,RT_4-1,Left,2,Left,599,58,51,Sound_1,Congruent,n,,1,experiment,rt,Male,Left,21,1,0,539.71875,599.0
677,RT_4-1,Right,1,Right,532,-48,-45,None,None,n,,1,experiment,rt,Male,Left,21,1,0,532.390625,532.0
678,RT_4-1,Right,3,Right,565,38,41,None,None,n,,1,experiment,rt,Male,Left,21,1,0,532.390625,565.0
679,RT_4-1,Left,4,Left,599,4,9,None,None,n,,1,experiment,rt,Male,Left,21,1,0,532.390625,599.0
680,RT_4-1,Right,7,Left,397,42,43,None,None,y,7.0,1,experiment,rt,Male,Left,21,0,1,532.390625,397.0
681,RT_4-1,Right,8,Right,565,-44,-39,None,Incongruent,n,,1,experiment,rt,Male,Left,21,1,0,604.765625,565.0
682,RT_4-1,Right,7,Right,564,42,42,Sound_1,Incongruent,y,7.0,1,experiment,rt,Male,Left,21,1,0,604.765625,564.0
683,RT_4-1,Left,2,Left,569,-38,-38,Sound_1,None,n,,1,experiment,rt,Male,Left,21,1,0,532.390625,569.0
684,RT_4-1,Right,2,Right,499,38,39,Sound_1,None,n,,1,experiment,rt,Male,Left,21,1,0,532.390625,499.0
685,RT_4-1,Right,5,Right,632,3,7,None,Congruent,y,5.0,1,experiment,rt,Male,Left,21,1,0,539.71875,632.0
686,RT_4-1,Left,2,Left,502,42,38,Sound_1,None,y,2.0,1,experiment,rt,Male,Left,21,1,0,532.390625,502.0
687,RT_4-1,Right,6,Right,505,4,2,None,None,y,6.0,1,experiment,rt,Male,Left,21,1,0,532.390625,505.0
688,RT_4-1,Right,7,Right,530,-49,-49,None,Congruent,y,7.0,1,experiment,rt,Male,Left,21,1,0,539.71875,530.0
689,RT_4-1,Right,5,Right,566,0,5,None,None,n,,1,experiment,rt,Male,Left,21,1,0,532.390625,566.0
690,RT_4-1,Left,5,Left,531,-40,-38,Sound_1,Incongruent,y,5.0,1,experiment,rt,Male,Left,21,1,0,604.765625,531.0
691,RT_4-1,Left,8,Left,834,34,14,None,None,n,,1,experiment,rt,Male,Left,21,1,0,532.390625,834.0
692,RT_4-1,Left,4,Left,634,-31,-19,Sound_1,Congruent,y,4.0,1,experiment,rt,Male,Left,21,1,0,539.71875,634.0
693,RT_4-1,Right,3,Right,465,-1,0,None,None,y,3.0,1,experiment,rt,Male,Left,21,1,0,532.390625,465.0
694,RT_4-1,Left,5,Left,498,-53,-53,Sound_1,None,n,,1,experiment,rt,Male,Left,21,1,0,532.390625,498.0
695,RT_4-1,Right,8,Right,465,-3,-3,None,Congruent,y,8.0,1,experiment,rt,Male,Left,21,1,0,539.71875,465.0
696,RT_4-1,Left,6,Left,565,-33,-23,Sound_1,Congruent,n,,1,experiment,rt,Male,Left,21,1,0,539.71875,565.0
697,RT_4-1,Right,6,Right,630,-2,-2,None,Incongruent,n,,1,experiment,rt,Male,Left,21,1,0,604.765625,630.0
698,RT_4-1,Left,8,Left,565,-35,-21,Sound_1,None,n,,1,experiment,rt,Male,Left,21,1,0,532.390625,565.0
699,RT_4-1,Left,2,Left,501,-4,-4,None,None,y,2.0,1,experiment,rt,Male,Left,21,1,0,532.390625,501.0
700,RT_4-1,Left,6,Left,532,-37,-37,None,Incongruent,y,6.0,1,experiment,rt,Male,Left,21,1,0,604.765625,532.0
701,RT_4-1,Right,6,Right,568,35,32,Sound_1,None,y,6.0,1,experiment,rt,Male,Left,21,1,0,532.390625,568.0
702,RT_4-1,Left,1,Left,531,0,5,Sound_1,None,y,1.0,1,experiment,rt,Male,Left,21,1,0,532.390625,531.0
703,RT_4-1,Left,2,Left,597,-35,-27,Sound_1,Incongruent,y,2.0,1,experiment,rt,Male,Left,21,1,0,604.765625,597.0
704,RT_4-1,Right,1,Right,503,0,-1,Sound_1,None,n,,1,experiment,rt,Male,Left,21,1,0,532.390625,503.0
705,RT_4-1,Left,7,Left,633,35,35,None,Incongruent,n,,1,experiment,rt,Male,Left,21,1,0,604.765625,633.0
706,RT_4-1,Right,6,Right,597,-33,-31,None,Congruent,n,,1,experiment,rt,Male,Left,21,1,0,539.71875,597.0
707,RT_4-1,Left,2,Left,599,34,34,None,None,n,,1,experiment,rt,Male,Left,21,1,0,532.390625,599.0
708,RT_4-1,Right,4,Right,598,-1,1,None,Incongruent,y,4.0,1,experiment,rt,Male,Left,21,1,0,604.765625,598.0
709,RT_4-1,Right,1,Right,466,33,40,None,None,y,1.0,1,experiment,rt,Male,Left,21,1,0,532.390625,466.0
710,RT_4-1,Right,8,Right,631,-39,-30,Sound_1,Incongruent,y,8.0,1,experiment,rt,Male,Left,21,1,0,604.765625,631.0
711,RT_4-1,Right,6,Right,532,33,31,None,Congruent,y,6.0,1,experiment,rt,Male,Left,21,1,0,539.71875,532.0
712,RT_4-1,Left,2,Left,732,3,3,Sound_1,Incongruent,n,,1,experiment,rt,Male,Left,21,1,0,604.765625,732.0
713,RT_4-1,Right,2,Right,665,-55,-52,None,None,y,2.0,1,experiment,rt,Male,Left,21,1,0,532.390625,665.0
714,RT_4-1,Left,5,Left,501,-3,-3,None,Congruent,n,,1,experiment,rt,Male,Left,21,1,0,539.71875,501.0
715,RT_4-1,Right,7,Right,634,-47,-44,Sound_1,Incongruent,n,,1,experiment,rt,Male,Left,21,1,0,604.765625,634.0
716,RT_4-1,Right,6,Right,632,37,41,None,None,n,,1,experiment,rt,Male,Left,21,1,0,532.390625,632.0
717,RT_4-1,Left,3,Left,564,1,3,Sound_1,Incongruent,y,3.0,1,experiment,rt,Male,Left,21,1,0,604.765625,564.0
718,RT_4-1,Right,8,Right,601,47,49,None,Congruent,n,,1,experiment,rt,Male,Left,21,1,0,539.71875,601.0
719,RT_4-1,Left,7,Left,498,3,5,None,Incongruent,y,7.0,1,experiment,rt,Male,Left,21,1,0,604.765625,498.0
720,RT_4-1,Right,8,Right,532,-48,-48,None,None,y,8.0,1,experiment,rt,Male,Left,21,1,0,532.390625,532.0
721,RT_4-1,Left,6,Left,667,1,1,None,Incongruent,n,,1,experiment,rt,Male,Left,21,1,0,604.765625,667.0
722,RT_4-1,Right,1,Right,498,-39,-35,Sound_1,None,y,1.0,1,experiment,rt,Male,Left,21,1,0,532.390625,498.0
723,RT_4-1,Left,7,Left,699,0,3,Sound_1,Congruent,n,,1,experiment,rt,Male,Left,21,1,0,539.71875,699.0
724,RT_4-1,Right,2,Right,465,-40,-40,Sound_1,Congruent,n,,1,experiment,rt,Male,Left,21,1,0,539.71875,465.0
725,RT_4-1,Left,3,Left,567,-1,-1,Sound_1,None,n,,1,experiment,rt,Male,Left,21,1,0,532.390625,567.0
726,RT_4-1,Right,7,Right,663,46,47,Sound_1,Congruent,n,,1,experiment,rt,Male,Left,21,1,0,539.71875,663.0
727,RT_4-1,Right,3,Left,568,5,8,Sound_1,Congruent,n,,1,experiment,rt,Male,Left,21,0,1,539.71875,568.0
728,RT_4-1,Right,2,Right,529,-35,-30,Sound_1,Incongruent,y,2.0,1,experiment,rt,Male,Left,21,1,0,604.765625,529.0
729,RT_4-1,Left,1,Left,532,39,39,None,Congruent,y,1.0,1,experiment,rt,Male,Left,21,1,0,539.71875,532.0
730,RT_4-1,Right,5,Right,562,3,0,Sound_1,None,y,5.0,1,experiment,rt,Male,Left,21,1,0,532.390625,562.0
731,RT_4-1,Right,3,Right,463,-32,-31,Sound_1,Congruent,y,3.0,1,experiment,rt,Male,Left,21,1,0,539.71875,463.0
732,RT_4-1,Right,8,Right,566,2,2,None,None,n,,1,experiment,rt,Male,Left,21,1,0,532.390625,566.0
733,RT_4-1,Left,1,Left,631,36,34,Sound_1,Incongruent,y,1.0,1,experiment,rt,Male,Left,21,1,0,604.765625,631.0
734,RT_4-1,Right,2,Right,434,2,2,None,Congruent,y,2.0,1,experiment,rt,Male,Left,21,1,0,539.71875,434.0
735,RT_4-1,Left,6,Left,530,-30,-29,Sound_1,None,y,6.0,1,experiment,rt,Male,Left,21,1,0,532.390625,530.0
736,RT_4-1,Right,1,Right,499,32,30,Sound_1,Congruent,n,,1,experiment,rt,Male,Left,21,1,0,539.71875,499.0
737,RT_4-1,Left,7,Left,398,-3,0,Sound_1,None,y,7.0,1,experiment,rt,Male,Left,21,1,0,532.390625,398.0
738,RT_4-1,Right,2,Right,567,35,33,None,Congruent,n,,1,experiment,rt,Male,Left,21,1,0,539.71875,567.0
739,RT_4-1,Left,2,Right,468,4,7,Sound_1,Congruent,y,2.0,1,experiment,rt,Male,Left,21,0,1,539.71875,468.0
740,RT_4-1,Right,3,Right,532,-32,-32,Sound_1,None,n,,1,experiment,rt,Male,Left,21,1,0,532.390625,532.0
741,RT_4-1,Left,4,Left,366,5,0,Sound_1,None,y,4.0,1,experiment,rt,Male,Left,21,1,0,532.390625,366.0
742,RT_4-1,Right,5,Right,571,-32,-31,Sound_1,Incongruent,y,5.0,1,experiment,rt,Male,Left,21,1,0,604.765625,571.0
743,RT_4-1,Right,2,Right,498,35,36,None,Incongruent,y,2.0,1,experiment,rt,Male,Left,21,1,0,604.765625,498.0
744,RT_4-1,Right,4,Right,569,1,3,Sound_1,Congruent,y,4.0,1,experiment,rt,Male,Left,21,1,0,539.71875,569.0
745,RT_4-1,Left,5,Left,534,48,43,None,Incongruent,y,5.0,1,experiment,rt,Male,Left,21,1,0,604.765625,534.0
746,RT_4-1,Left,5,Left,533,7,5,None,None,y,5.0,1,experiment,rt,Male,Left,21,1,0,532.390625,533.0
747,RT_4-1,Right,5,Right,732,-31,-31,None,Incongruent,n,,1,experiment,rt,Male,Left,21,1,0,604.765625,732.0
748,RT_4-1,Left,6,Right,599,37,35,Sound_1,Incongruent,n,,1,experiment,rt,Male,Left,21,0,1,604.765625,599.0
749,RT_4-1,Right,3,Right,698,5,8,None,Incongruent,n,,1,experiment,rt,Male,Left,21,1,0,604.765625,698.0
750,RT_4-1,Right,7,Right,564,-31,-30,Sound_1,None,y,7.0,1,experiment,rt,Male,Left,21,1,0,532.390625,564.0
751,RT_4-1,Left,6,Left,398,9,4,Sound_1,Incongruent,y,6.0,1,experiment,rt,Male,Left,21,1,0,604.765625,398.0
752,RT_4-1,Left,3,Left,564,41,39,None,None,y,3.0,1,experiment,rt,Male,Left,21,1,0,532.390625,564.0
753,RT_4-1,Left,1,Left,668,-30,-30,None,Congruent,n,,1,experiment,rt,Male,Left,21,1,0,539.71875,668.0
754,RT_4-1,Left,1,Left,570,39,45,Sound_1,None,n,,1,experiment,rt,Male,Left,21,1,0,532.390625,570.0
755,RT_4-1,Left,8,Left,566,0,4,Sound_1,Incongruent,n,,1,experiment,rt,Male,Left,21,1,0,604.765625,566.0
756,RT_4-1,Left,4,Left,532,33,33,Sound_1,None,n,,1,experiment,rt,Male,Left,21,1,0,532.390625,532.0
757,RT_4-1,Left,7,Left,567,3,10,None,None,n,,1,experiment,rt,Male,Left,21,1,0,532.390625,567.0
758,RT_4-1,Left,5,Left,633,38,36,None,None,n,,1,experiment,rt,Male,Left,21,1,0,532.390625,633.0
759,RT_4-1,Left,2,Left,564,-34,-26,None,Congruent,y,2.0,1,experiment,rt,Male,Left,21,1,0,539.71875,564.0
760,RT_4-1,Left,8,Left,566,-1,1,None,Congruent,n,,1,experiment,rt,Male,Left,21,1,0,539.71875,566.0
761,RT_4-1,Right,5,Left,366,37,37,None,Incongruent,y,5.0,1,experiment,rt,Male,Left,21,0,1,604.765625,366.0
762,RT_4-1,Right,6,Right,499,4,6,Sound_1,Congruent,n,,1,experiment,rt,Male,Left,21,1,0,539.71875,499.0
763,RT_4-1,Left,4,Left,499,57,57,None,Congruent,y,4.0,1,experiment,rt,Male,Left,21,1,0,539.71875,499.0
764,RT_4-1,Right,1,Right,565,-32,-34,None,Congruent,y,1.0,1,experiment,rt,Male,Left,21,1,0,539.71875,565.0
765,RT_4-1,Left,1,Left,666,1,5,None,None,n,,1,experiment,rt,Male,Left,21,1,0,532.390625,666.0
766,RT_4-1,Right,2,Left,663,-39,-35,None,Incongruent,n,,1,experiment,rt,Male,Left,21,0,1,604.765625,663.0
767,RT_4-1,Left,6,Left,532,44,40,None,None,y,6.0,1,experiment,rt,Male,Left,21,1,0,532.390625,532.0
768,RT_4-1,Left,3,Left,398,-39,-36,Sound_1,None,y,3.0,1,experiment,rt,Male,Left,21,1,0,532.390625,398.0
769,RT_4-1,Right,7,Right,665,3,2,None,Incongruent,y,7.0,1,experiment,rt,Male,Left,21,1,0,604.765625,665.0
770,RT_4-1,Left,4,Left,731,34,30,None,Incongruent,n,,1,experiment,rt,Male,Left,21,1,0,604.765625,731.0
771,RT_4-1,Left,8,Left,501,6,6,None,None,y,8.0,1,experiment,rt,Male,Left,21,1,0,532.390625,501.0
772,RT_4-1,Left,3,Left,668,38,40,Sound_1,Incongruent,n,,1,experiment,rt,Male,Left,21,1,0,604.765625,668.0
773,RT_4-1,Left,4,Left,534,5,5,None,Incongruent,y,4.0,1,experiment,rt,Male,Left,21,1,0,604.765625,534.0
774,RT_4-1,Right,4,Right,566,33,31,None,None,y,4.0,1,experiment,rt,Male,Left,21,1,0,532.390625,566.0
775,RT_4-1,Right,4,Right,635,-32,-29,None,None,n,,1,experiment,rt,Male,Left,21,1,0,532.390625,635.0
776,RT_4-1,Right,7,Right,732,34,33,None,Incongruent,n,,1,experiment,rt,Male,Left,21,1,0,604.765625,732.0
777,RT_4-1,Right,3,Right,799,-30,-25,None,Incongruent,y,3.0,1,experiment,rt,Male,Left,21,1,0,604.765625,799.0
778,RT_4-1,Right,8,Right,530,31,30,Sound_1,Congruent,y,8.0,1,experiment,rt,Male,Left,21,1,0,539.71875,530.0
779,RT_4-1,Left,3,Left,666,0,5,None,Incongruent,n,,1,experiment,rt,Male,Left,21,1,0,604.765625,666.0
780,RT_4-1,Right,4,Right,566,-44,-46,None,Congruent,y,4.0,1,experiment,rt,Male,Left,21,1,0,539.71875,566.0
781,RT_4-1,Right,1,Right,496,35,29,Sound_1,Incongruent,y,1.0,1,experiment,rt,Male,Left,21,1,0,604.765625,496.0
782,RT_4-1,Right,4,Right,600,5,7,None,Congruent,n,,1,experiment,rt,Male,Left,21,1,0,539.71875,600.0
783,RT_4-1,Right,5,Right,533,31,30,Sound_1,None,n,,1,experiment,rt,Male,Left,21,1,0,532.390625,533.0
784,RT_4-1,Right,5,Right,734,1,4,Sound_1,Incongruent,n,,1,experiment,rt,Male,Left,21,1,0,604.765625,734.0
785,RT_4-1,Right,4,Right,533,34,34,Sound_1,Incongruent,y,4.0,1,experiment,rt,Male,Left,21,1,0,604.765625,533.0
786,RT_4-1,Left,3,Left,733,-29,-18,None,Incongruent,y,3.0,1,experiment,rt,Male,Left,21,1,0,604.765625,733.0
787,RT_4-1,Right,6,Right,632,32,30,Sound_1,Incongruent,n,,1,experiment,rt,Male,Left,21,1,0,604.765625,632.0
788,RT_4-1,Left,4,Left,432,-36,-37,None,None,y,4.0,1,experiment,rt,Male,Left,21,1,0,532.390625,432.0
789,RT_4-1,Right,3,Right,365,38,39,Sound_1,None,y,3.0,1,experiment,rt,Male,Left,21,1,0,532.390625,365.0
790,RT_4-1,Right,6,Right,502,-1,1,Sound_1,Incongruent,y,6.0,1,experiment,rt,Male,Left,21,1,0,604.765625,502.0
791,RT_4-1,Left,3,Left,465,33,31,Sound_1,Congruent,y,3.0,1,experiment,rt,Male,Left,21,1,0,539.71875,465.0
792,RT_4-1,Left,8,Left,534,-1,2,Sound_1,Congruent,y,8.0,1,experiment,rt,Male,Left,21,1,0,539.71875,534.0
793,RT_4-1,Left,4,Left,565,-32,-33,None,Congruent,n,,1,experiment,rt,Male,Left,21,1,0,539.71875,565.0
794,RT_4-1,Left,3,Left,634,40,40,None,Congruent,n,,1,experiment,rt,Male,Left,21,1,0,539.71875,634.0
795,RT_4-1,Left,1,Left,466,-37,-35,None,None,y,1.0,1,experiment,rt,Male,Left,21,1,0,532.390625,466.0
796,RT_4-1,Left,3,Left,499,0,0,None,Congruent,y,3.0,1,experiment,rt,Male,Left,21,1,0,539.71875,499.0
797,RT_4-1,Right,4,Right,466,35,35,Sound_1,Congruent,n,,1,experiment,rt,Male,Left,21,1,0,539.71875,466.0
798,RT_4-1,Right,4,Right,536,3,9,Sound_1,None,n,,1,experiment,rt,Male,Left,21,1,0,532.390625,536.0
799,RT_4-1,Left,7,Left,466,-34,-35,None,Congruent,n,,1,experiment,rt,Male,Left,21,1,0,539.71875,466.0
800,RT_4-1,Right,1,Right,603,-1,1,None,Incongruent,y,1.0,1,experiment,rt,Male,Left,21,1,0,604.765625,603.0
801,RT_4-1,Left,5,Left,533,-41,-39,None,Incongruent,n,,1,experiment,rt,Male,Left,21,1,0,604.765625,533.0
802,RT_4-1,Left,6,Left,466,-1,-1,Sound_1,None,n,,1,experiment,rt,Male,Left,21,1,0,532.390625,466.0
803,RT_4-1,Right,4,Right,334,-43,-42,Sound_1,None,y,4.0,1,experiment,rt,Male,Left,21,1,0,532.390625,334.0
804,RT_4-1,Left,8,Left,532,43,43,Sound_1,Congruent,n,,1,experiment,rt,Male,Left,21,1,0,539.71875,532.0
805,RT_4-1,Right,6,Right,731,-43,-22,None,Incongruent,y,6.0,1,experiment,rt,Male,Left,21,1,0,604.765625,731.0
806,RT_4-1,Left,1,Left,605,34,33,None,Incongruent,n,,1,experiment,rt,Male,Left,21,1,0,604.765625,605.0
807,RT_4-1,Right,8,Right,499,7,6,Sound_1,Incongruent,n,,1,experiment,rt,Male,Left,21,1,0,604.765625,499.0
808,RT_4-1,Right,6,Left,431,-47,-43,Sound_1,Congruent,y,6.0,1,experiment,rt,Male,Left,21,0,1,539.71875,431.0
809,RT_4-1,Right,8,Right,469,37,35,Sound_1,None,n,,1,experiment,rt,Male,Left,21,1,0,532.390625,469.0
810,RT_4-1,Right,3,Right,566,-37,-39,None,Congruent,n,,1,experiment,rt,Male,Left,21,1,0,539.71875,566.0
811,RT_4-1,Left,8,Left,529,34,37,Sound_1,None,y,8.0,1,experiment,rt,Male,Left,21,1,0,532.390625,529.0
812,RT_4-1,Left,1,Left,497,-34,-34,Sound_1,Congruent,y,1.0,1,experiment,rt,Male,Left,21,1,0,539.71875,497.0
813,RT_4-1,Left,7,Left,532,31,33,Sound_1,Incongruent,y,7.0,1,experiment,rt,Male,Left,21,1,0,604.765625,532.0
814,RT_4-1,Right,6,Right,633,-56,-54,Sound_1,None,n,,1,experiment,rt,Male,Left,21,1,0,532.390625,633.0
815,RT_4-1,Left,1,Left,501,2,2,None,Incongruent,y,1.0,1,experiment,rt,Male,Left,21,1,0,604.765625,501.0
816,RT_4-1,Right,4,Right,698,-42,-35,Sound_1,Incongruent,n,,1,experiment,rt,Male,Left,21,1,0,604.765625,698.0
817,RT_4-1,Left,4,Left,536,3,3,Sound_1,Congruent,n,,1,experiment,rt,Male,Left,21,1,0,539.71875,536.0
818,RT_4-1,Right,4,Right,699,40,40,None,Incongruent,n,,1,experiment,rt,Male,Left,21,1,0,604.765625,699.0
819,RT_4-1,Right,3,Left,434,8,4,Sound_1,Incongruent,y,3.0,1,experiment,rt,Male,Left,21,0,1,604.765625,434.0
820,RT_4-1,Right,8,Right,499,-32,-34,Sound_1,Congruent,n,,1,experiment,rt,Male,Left,21,1,0,539.71875,499.0
821,RT_4-1,Left,7,Left,533,36,39,Sound_1,None,n,,1,experiment,rt,Male,Left,21,1,0,532.390625,533.0
822,RT_4-1,Left,2,Left,797,-31,-23,None,Incongruent,n,,1,experiment,rt,Male,Left,21,1,0,604.765625,797.0
823,RT_4-1,Right,8,Right,597,42,36,None,Incongruent,y,8.0,1,experiment,rt,Male,Left,21,1,0,604.765625,597.0
824,RT_4-1,Right,7,Right,597,0,5,Sound_1,None,n,,1,experiment,rt,Male,Left,21,1,0,532.390625,597.0
825,RT_4-1,Right,5,Right,532,-31,-24,Sound_1,Congruent,n,,1,experiment,rt,Male,Left,21,1,0,539.71875,532.0
826,RT_4-1,Right,1,Right,731,-1,-4,None,Congruent,n,,1,experiment,rt,Male,Left,21,1,0,539.71875,731.0
827,RT_4-1,Left,5,Left,498,39,38,Sound_1,None,y,5.0,1,experiment,rt,Male,Left,21,1,0,532.390625,498.0
828,RT_4-1,Right,7,Right,499,3,5,Sound_1,Congruent,y,7.0,1,experiment,rt,Male,Left,21,1,0,539.71875,499.0
829,RT_4-1,Left,3,Left,565,-39,-33,Sound_1,Congruent,n,,1,experiment,rt,Male,Left,21,1,0,539.71875,565.0
830,RT_4-1,Left,1,Left,566,-2,-1,Sound_1,Congruent,n,,1,experiment,rt,Male,Left,21,1,0,539.71875,566.0
831,RT_4-1,Left,7,Left,533,-41,-40,Sound_1,Incongruent,n,,1,experiment,rt,Male,Left,21,1,0,604.765625,533.0
832,RT_4-1,Right,1,Right,497,-3,-6,Sound_1,Congruent,y,1.0,1,experiment,rt,Male,Left,21,1,0,539.71875,497.0
833,RT_4-1,Left,6,Left,597,38,35,None,Congruent,n,,1,experiment,rt,Male,Left,21,1,0,539.71875,597.0
834,RT_4-1,Right,1,Right,700,-37,-31,Sound_1,Incongruent,n,,1,experiment,rt,Male,Left,21,1,0,604.765625,700.0
835,RT_4-1,Right,7,Right,567,-1,-1,None,Congruent,n,,1,experiment,rt,Male,Left,21,1,0,539.71875,567.0
836,RT_4-1,Right,5,Right,533,47,44,Sound_1,Congruent,y,5.0,1,experiment,rt,Male,Left,21,1,0,539.71875,533.0
837,RT_4-1,Left,6,Left,639,-35,-23,None,None,n,,1,experiment,rt,Male,Left,21,1,0,532.390625,639.0
838,RT_4-1,Left,2,Left,633,-1,3,None,Congruent,n,,1,experiment,rt,Male,Left,21,1,0,539.71875,633.0
839,RT_4-1,Left,1,Left,835,-51,-51,Sound_1,Incongruent,n,,1,experiment,rt,Male,Left,21,1,0,604.765625,835.0
840,RT_4-1,Left,5,Left,529,6,0,Sound_1,Congruent,y,5.0,1,experiment,rt,Male,Left,21,1,0,539.71875,529.0
841,RT_4-1,Left,8,Left,666,-33,-34,None,Incongruent,n,,1,experiment,rt,Male,Left,21,1,0,604.765625,666.0
842,RT_4-1,Left,6,Left,503,40,39,Sound_1,Congruent,y,6.0,1,experiment,rt,Male,Left,21,1,0,539.71875,503.0
843,RT_4-1,Left,7,Left,466,-33,-30,Sound_1,Congruent,y,7.0,1,experiment,rt,Male,Left,21,1,0,539.71875,466.0
844,RT_4-1,Left,2,Left,600,35,41,None,Incongruent,y,2.0,1,experiment,rt,Male,Left,21,1,0,604.765625,600.0
845,RT_4-1,Right,5,Right,570,-36,-32,None,None,y,5.0,1,experiment,rt,Male,Left,21,1,0,532.390625,570.0
846,RT_4-1,Right,3,Right,502,32,29,None,Congruent,y,3.0,1,experiment,rt,Male,Left,21,1,0,539.71875,502.0
847,RT_4-1,Left,4,Left,501,-40,-38,Sound_1,Incongruent,n,,1,experiment,rt,Male,Left,21,1,0,604.765625,501.0
848,RT_4-1,Right,2,Right,364,9,13,Sound_1,None,y,2.0,1,experiment,rt,Male,Left,21,1,0,532.390625,364.0
849,RT_4-1,Right,5,Right,600,30,32,None,Congruent,n,,1,experiment,rt,Male,Left,21,1,0,539.71875,600.0
850,RT_4-1,Right,7,Right,600,-41,-39,None,None,n,,1,experiment,rt,Male,Left,21,1,0,532.390625,600.0
851,RT_4-1,Right,2,Left,533,-1,-1,Sound_1,Incongruent,n,,1,experiment,rt,Male,Left,21,0,1,604.765625,533.0
852,RT_4-1,Left,7,Left,471,-35,-33,None,None,y,7.0,1,experiment,rt,Male,Left,21,1,0,532.390625,471.0
853,RT_4-1,Left,4,Left,666,42,44,Sound_1,Incongruent,y,4.0,1,experiment,rt,Male,Left,21,1,0,604.765625,666.0
854,RT_4-1,Left,8,Left,400,-36,-33,None,Congruent,y,8.0,1,experiment,rt,Male,Left,21,1,0,539.71875,400.0
855,RT_4-1,Left,8,Left,664,47,37,None,Incongruent,y,8.0,1,experiment,rt,Male,Left,21,1,0,604.765625,664.0
856,RT_4-1,Left,5,Left,499,-55,-50,None,Congruent,y,5.0,1,experiment,rt,Male,Left,21,1,0,539.71875,499.0
857,RT_4-1,Left,5,Left,464,33,29,Sound_1,Congruent,n,,1,experiment,rt,Male,Left,21,1,0,539.71875,464.0
858,RT_4-1,Right,8,Right,465,0,5,Sound_1,None,y,8.0,1,experiment,rt,Male,Left,21,1,0,532.390625,465.0
859,RT_4-1,Right,1,Right,596,47,49,None,Incongruent,n,,1,experiment,rt,Male,Left,21,1,0,604.765625,596.0
860,RT_4-1,Left,8,Left,565,-39,-46,Sound_1,Incongruent,y,8.0,1,experiment,rt,Male,Left,21,1,0,604.765625,565.0
861,RT_4-1,Right,3,Left,565,36,33,Sound_1,Incongruent,n,,1,experiment,rt,Male,Left,21,0,1,604.765625,565.0
862,RT_4-1,Left,6,Left,499,0,2,None,Congruent,y,6.0,1,experiment,rt,Male,Left,21,1,0,539.71875,499.0
863,RT_4-1,Left,3,Left,667,-35,-36,None,None,n,,1,experiment,rt,Male,Left,21,1,0,532.390625,667.0
888,RT_3-1,Left,1,Left,799,-1,0,None,None,n,,1,experiment,rt,Female,Right,20,1,0,594.1111111111111,799.0
889,RT_3-1,Right,5,Right,633,-41,-30,None,None,y,5.0,1,experiment,rt,Female,Right,20,1,0,594.1111111111111,633.0
890,RT_3-1,Left,8,Left,631,7,2,Sound_1,Congruent,y,8.0,1,experiment,rt,Female,Right,20,1,0,604.5,631.0
891,RT_3-1,Left,7,Left,665,-42,-39,Sound_1,Incongruent,n,,1,experiment,rt,Female,Right,20,1,0,648.9193548387096,665.0
892,RT_3-1,Right,1,Right,498,2,-1,Sound_1,None,n,,1,experiment,rt,Female,Right,20,1,0,594.1111111111111,498.0
893,RT_3-1,Right,8,Right,533,51,48,Sound_1,Congruent,y,8.0,1,experiment,rt,Female,Right,20,1,0,604.5,533.0
894,RT_3-1,Right,7,Left,463,-7,-3,Sound_1,None,n,,1,experiment,rt,Female,Right,20,0,1,594.1111111111111,463.0
895,RT_3-1,Right,1,Right,601,-37,-31,None,None,n,,1,experiment,rt,Female,Right,20,1,0,594.1111111111111,601.0
896,RT_3-1,Left,6,Left,767,5,0,None,Incongruent,n,,1,experiment,rt,Female,Right,20,1,0,648.9193548387096,767.0
897,RT_3-1,Right,5,Right,534,56,57,Sound_1,None,n,,1,experiment,rt,Female,Right,20,1,0,594.1111111111111,534.0
898,RT_3-1,Left,4,Left,598,-5,-5,Sound_1,Congruent,n,,1,experiment,rt,Female,Right,20,1,0,604.5,598.0
899,RT_3-1,Right,8,Right,498,-44,-42,Sound_1,Congruent,n,,1,experiment,rt,Female,Right,20,1,0,604.5,498.0
900,RT_3-1,Left,1,Left,597,11,7,Sound_1,None,y,1.0,1,experiment,rt,Female,Right,20,1,0,594.1111111111111,597.0
901,RT_3-1,Right,4,Right,533,37,42,Sound_1,Congruent,n,,1,experiment,rt,Female,Right,20,1,0,604.5,533.0
902,RT_3-1,Left,1,Left,500,-5,-5,Sound_1,Congruent,n,,1,experiment,rt,Female,Right,20,1,0,604.5,500.0
903,RT_3-1,Left,4,Left,663,-46,-48,Sound_1,Incongruent,n,,1,experiment,rt,Female,Right,20,1,0,648.9193548387096,663.0
904,RT_3-1,Right,2,Right,468,9,7,Sound_1,None,y,2.0,1,experiment,rt,Female,Right,20,1,0,594.1111111111111,468.0
905,RT_3-1,Right,7,Right,763,41,45,None,Incongruent,n,,1,experiment,rt,Female,Right,20,1,0,648.9193548387096,763.0
906,RT_3-1,Left,2,Left,730,10,7,None,None,y,2.0,1,experiment,rt,Female,Right,20,1,0,594.1111111111111,730.0
907,RT_3-1,Left,5,Left,499,-37,-36,Sound_1,None,n,,1,experiment,rt,Female,Right,20,1,0,594.1111111111111,499.0
908,RT_3-1,Right,3,Right,668,43,46,None,None,n,,1,experiment,rt,Female,Right,20,1,0,594.1111111111111,668.0
909,RT_3-1,Right,8,Right,633,-3,1,None,Congruent,y,8.0,1,experiment,rt,Female,Right,20,1,0,604.5,633.0
910,RT_3-1,Right,2,Right,469,-44,-33,None,None,y,2.0,1,experiment,rt,Female,Right,20,1,0,594.1111111111111,469.0
911,RT_3-1,Left,2,Left,799,55,25,Sound_1,Congruent,n,,1,experiment,rt,Female,Right,20,1,0,604.5,799.0
912,RT_3-1,Right,1,Right,465,-6,-2,Sound_1,Congruent,y,1.0,1,experiment,rt,Female,Right,20,1,0,604.5,465.0
913,RT_3-1,Right,1,Right,599,-30,-28,Sound_1,Incongruent,n,,1,experiment,rt,Female,Right,20,1,0,648.9193548387096,599.0
914,RT_3-1,Right,6,Right,597,1,0,Sound_1,Incongruent,y,6.0,1,experiment,rt,Female,Right,20,1,0,648.9193548387096,597.0
915,RT_3-1,Right,4,Right,565,47,46,None,Incongruent,n,,1,experiment,rt,Female,Right,20,1,0,648.9193548387096,565.0
916,RT_3-1,Left,3,Left,532,-45,-46,Sound_1,None,y,3.0,1,experiment,rt,Female,Right,20,1,0,594.1111111111111,532.0
917,RT_3-1,Left,7,Left,529,9,0,Sound_1,None,y,7.0,1,experiment,rt,Female,Right,20,1,0,594.1111111111111,529.0
918,RT_3-1,Left,4,Left,599,-50,-44,None,Congruent,n,,1,experiment,rt,Female,Right,20,1,0,604.5,599.0
919,RT_3-1,Left,5,Left,632,46,49,Sound_1,Congruent,n,,1,experiment,rt,Female,Right,20,1,0,604.5,632.0
920,RT_3-1,Left,7,Left,468,-56,-54,None,None,y,7.0,1,experiment,rt,Female,Right,20,1,0,594.1111111111111,468.0
921,RT_3-1,Left,8,Left,763,7,-2,Sound_1,Incongruent,n,,1,experiment,rt,Female,Right,20,1,0,648.9193548387096,763.0
922,RT_3-1,Left,1,Left,637,-41,-49,Sound_1,Incongruent,n,,1,experiment,rt,Female,Right,20,1,0,648.9193548387096,637.0
923,RT_3-1,Right,1,Right,567,47,46,Sound_1,Congruent,n,,1,experiment,rt,Female,Right,20,1,0,604.5,567.0
924,RT_3-1,Left,5,Left,631,8,5,None,Congruent,n,,1,experiment,rt,Female,Right,20,1,0,604.5,631.0
925,RT_3-1,Left,1,Left,533,-53,-54,Sound_1,Congruent,y,1.0,1,experiment,rt,Female,Right,20,1,0,604.5,533.0
926,RT_3-1,Left,6,Left,597,55,55,Sound_1,Congruent,y,6.0,1,experiment,rt,Female,Right,20,1,0,604.5,597.0
927,RT_3-1,Left,6,Left,632,-1,0,Sound_1,Incongruent,y,6.0,1,experiment,rt,Female,Right,20,1,0,648.9193548387096,632.0
928,RT_3-1,Left,6,Left,731,52,49,None,Congruent,n,,1,experiment,rt,Female,Right,20,1,0,604.5,731.0
929,RT_3-1,Right,6,Left,465,-37,-36,Sound_1,None,n,,1,experiment,rt,Female,Right,20,0,1,594.1111111111111,465.0
930,RT_3-1,Right,8,Right,664,51,49,None,Congruent,n,,1,experiment,rt,Female,Right,20,1,0,604.5,664.0
931,RT_3-1,Right,5,Right,598,-2,-3,Sound_1,None,y,5.0,1,experiment,rt,Female,Right,20,1,0,594.1111111111111,598.0
932,RT_3-1,Left,8,Left,565,-46,-47,None,Congruent,y,8.0,1,experiment,rt,Female,Right,20,1,0,604.5,565.0
933,RT_3-1,Right,7,Right,698,-4,-1,None,Congruent,n,,1,experiment,rt,Female,Right,20,1,0,604.5,698.0
934,RT_3-1,Left,5,Left,534,50,50,Sound_1,None,y,5.0,1,experiment,rt,Female,Right,20,1,0,594.1111111111111,534.0
935,RT_3-1,Left,6,Left,732,-37,-37,None,Incongruent,y,6.0,1,experiment,rt,Female,Right,20,1,0,648.9193548387096,732.0
936,RT_3-1,Right,7,Right,699,54,55,Sound_1,Congruent,n,,1,experiment,rt,Female,Right,20,1,0,604.5,699.0
937,RT_3-1,Right,8,Right,634,-4,-2,None,None,n,,1,experiment,rt,Female,Right,20,1,0,594.1111111111111,634.0
938,RT_3-1,Right,1,Right,630,42,46,None,Incongruent,n,,1,experiment,rt,Female,Right,20,1,0,648.9193548387096,630.0
939,RT_3-1,Right,7,Right,666,-58,-57,None,None,n,,1,experiment,rt,Female,Right,20,1,0,594.1111111111111,666.0
940,RT_3-1,Left,5,Left,498,4,4,None,None,y,5.0,1,experiment,rt,Female,Right,20,1,0,594.1111111111111,498.0
941,RT_3-1,Left,6,Left,833,59,35,None,None,y,6.0,1,experiment,rt,Female,Right,20,1,0,594.1111111111111,833.0
942,RT_3-1,Right,2,Right,600,-46,-46,None,Incongruent,n,,1,experiment,rt,Female,Right,20,1,0,648.9193548387096,600.0
943,RT_3-1,Left,3,Left,662,1,-5,Sound_1,Incongruent,y,3.0,1,experiment,rt,Female,Right,20,1,0,648.9193548387096,662.0
944,RT_3-1,Right,6,Right,763,39,34,None,None,n,,1,experiment,rt,Female,Right,20,1,0,594.1111111111111,763.0
945,RT_3-1,Left,7,Left,699,-3,-2,None,None,n,,1,experiment,rt,Female,Right,20,1,0,594.1111111111111,699.0
946,RT_3-1,Right,7,Right,532,-44,-41,None,Congruent,y,7.0,1,experiment,rt,Female,Right,20,1,0,604.5,532.0
947,RT_3-1,Left,5,Left,766,31,31,None,Incongruent,y,5.0,1,experiment,rt,Female,Right,20,1,0,648.9193548387096,766.0
948,RT_3-1,Right,6,Right,630,-6,-2,None,Incongruent,n,,1,experiment,rt,Female,Right,20,1,0,648.9193548387096,630.0
949,RT_3-1,Left,8,Left,631,46,52,Sound_1,None,y,8.0,1,experiment,rt,Female,Right,20,1,0,594.1111111111111,631.0
950,RT_3-1,Left,8,Left,698,-6,-3,None,None,y,8.0,1,experiment,rt,Female,Right,20,1,0,594.1111111111111,698.0
951,RT_3-1,Left,2,Left,699,-36,-39,None,Congruent,y,2.0,1,experiment,rt,Female,Right,20,1,0,604.5,699.0
952,RT_3-1,Right,3,Right,734,2,-2,None,Incongruent,n,,1,experiment,rt,Female,Right,20,1,0,648.9193548387096,734.0
953,RT_3-1,Right,8,Right,563,57,58,None,Incongruent,y,8.0,1,experiment,rt,Female,Right,20,1,0,648.9193548387096,563.0
954,RT_3-1,Right,4,Right,732,-50,-49,None,None,n,,1,experiment,rt,Female,Right,20,1,0,594.1111111111111,732.0
955,RT_3-1,Right,5,Right,599,43,46,None,Incongruent,y,5.0,1,experiment,rt,Female,Right,20,1,0,648.9193548387096,599.0
956,RT_3-1,Left,2,Right,531,-42,-41,Sound_1,None,n,,1,experiment,rt,Female,Right,20,0,1,594.1111111111111,531.0
957,RT_3-1,Right,8,Right,668,56,56,Sound_1,None,n,,1,experiment,rt,Female,Right,20,1,0,594.1111111111111,668.0
958,RT_3-1,Right,4,Right,598,1,-1,Sound_1,None,n,,1,experiment,rt,Female,Right,20,1,0,594.1111111111111,598.0
959,RT_3-1,Left,8,Left,665,58,56,Sound_1,Congruent,n,,1,experiment,rt,Female,Right,20,1,0,604.5,665.0
960,RT_3-1,Left,6,Left,531,-52,-54,Sound_1,Congruent,n,,1,experiment,rt,Female,Right,20,1,0,604.5,531.0
961,RT_3-1,Left,6,Left,631,51,52,Sound_1,Incongruent,n,,1,experiment,rt,Female,Right,20,1,0,648.9193548387096,631.0
962,RT_3-1,Right,5,Right,700,0,-2,None,None,n,,1,experiment,rt,Female,Right,20,1,0,594.1111111111111,700.0
963,RT_3-1,Left,5,Left,599,-37,-38,None,Congruent,y,5.0,1,experiment,rt,Female,Right,20,1,0,604.5,599.0
964,RT_3-1,Right,1,Right,499,7,4,None,Incongruent,y,1.0,1,experiment,rt,Female,Right,20,1,0,648.9193548387096,499.0
965,RT_3-1,Left,8,Left,564,37,27,None,Incongruent,y,8.0,1,experiment,rt,Female,Right,20,1,0,648.9193548387096,564.0
966,RT_3-1,Right,5,Right,631,-43,-41,Sound_1,Incongruent,y,5.0,1,experiment,rt,Female,Right,20,1,0,648.9193548387096,631.0
967,RT_3-1,Right,2,Right,532,1,-2,None,None,n,,1,experiment,rt,Female,Right,20,1,0,594.1111111111111,532.0
968,RT_3-1,Right,3,Right,399,-39,-38,None,Incongruent,y,3.0,1,experiment,rt,Female,Right,20,1,0,648.9193548387096,399.0
969,RT_3-1,Right,2,Right,565,31,30,None,Incongruent,y,2.0,1,experiment,rt,Female,Right,20,1,0,648.9193548387096,565.0
970,RT_3-1,Left,7,Left,464,-47,-51,Sound_1,Congruent,y,7.0,1,experiment,rt,Female,Right,20,1,0,604.5,464.0
971,RT_3-1,Left,3,Left,799,49,48,Sound_1,Incongruent,n,,1,experiment,rt,Female,Right,20,1,0,648.9193548387096,799.0
972,RT_3-1,Left,2,Right,765,-55,-54,None,Incongruent,n,,1,experiment,rt,Female,Right,20,0,1,648.9193548387096,765.0
973,RT_3-1,Right,2,Right,466,6,5,None,Congruent,y,2.0,1,experiment,rt,Female,Right,20,1,0,604.5,466.0
974,RT_3-1,Right,2,Right,631,45,42,None,Congruent,n,,1,experiment,rt,Female,Right,20,1,0,604.5,631.0
975,RT_3-1,Left,6,Left,531,-6,-4,Sound_1,None,n,,1,experiment,rt,Female,Right,20,1,0,594.1111111111111,531.0
976,RT_3-1,Left,1,Left,631,54,47,Sound_1,Incongruent,y,1.0,1,experiment,rt,Female,Right,20,1,0,648.9193548387096,631.0
977,RT_3-1,Right,6,Right,699,-50,-50,None,Incongruent,y,6.0,1,experiment,rt,Female,Right,20,1,0,648.9193548387096,699.0
978,RT_3-1,Left,4,Left,833,44,48,Sound_1,None,n,,1,experiment,rt,Female,Right,20,1,0,594.1111111111111,833.0
979,RT_3-1,Right,5,Left,699,-2,-1,Sound_1,Incongruent,n,,1,experiment,rt,Female,Right,20,0,1,648.9193548387096,699.0
980,RT_3-1,Right,3,None,1001,46,35,None,Congruent,y,3.0,1,experiment,rt,Female,Right,20,0,1,604.5,604.5
981,RT_3-1,Left,7,Left,700,-37,-38,None,Congruent,n,,1,experiment,rt,Female,Right,20,1,0,604.5,700.0
982,RT_3-1,Left,7,Right,764,44,38,None,Incongruent,n,,1,experiment,rt,Female,Right,20,0,1,648.9193548387096,764.0
983,RT_3-1,Right,8,Right,531,-12,0,Sound_1,None,y,8.0,1,experiment,rt,Female,Right,20,1,0,594.1111111111111,531.0
984,RT_3-1,Left,7,Left,465,44,38,None,Congruent,y,7.0,1,experiment,rt,Female,Right,20,1,0,604.5,465.0
985,RT_3-1,Left,8,Left,566,-4,-9,None,Congruent,n,,1,experiment,rt,Female,Right,20,1,0,604.5,566.0
986,RT_3-1,Left,3,Left,532,38,34,None,None,y,3.0,1,experiment,rt,Female,Right,20,1,0,594.1111111111111,532.0
987,RT_3-1,Right,3,Right,730,8,5,Sound_1,Incongruent,y,3.0,1,experiment,rt,Female,Right,20,1,0,648.9193548387096,730.0
988,RT_3-1,Left,3,Left,702,-38,-39,None,None,n,,1,experiment,rt,Female,Right,20,1,0,594.1111111111111,702.0
989,RT_3-1,Left,1,Left,532,48,44,Sound_1,None,n,,1,experiment,rt,Female,Right,20,1,0,594.1111111111111,532.0
990,RT_3-1,Left,6,Left,465,-58,-59,Sound_1,None,y,6.0,1,experiment,rt,Female,Right,20,1,0,594.1111111111111,465.0
991,RT_3-1,Left,2,Left,665,38,36,None,Incongruent,y,2.0,1,experiment,rt,Female,Right,20,1,0,648.9193548387096,665.0
992,RT_3-1,Right,8,Left,697,-56,-54,Sound_1,Incongruent,y,8.0,1,experiment,rt,Female,Right,20,0,1,648.9193548387096,697.0
993,RT_3-1,Right,4,Right,697,37,32,Sound_1,Incongruent,y,4.0,1,experiment,rt,Female,Right,20,1,0,648.9193548387096,697.0
994,RT_3-1,Left,8,Left,566,-50,-50,Sound_1,None,n,,1,experiment,rt,Female,Right,20,1,0,594.1111111111111,566.0
995,RT_3-1,Right,3,Right,464,30,27,Sound_1,None,y,3.0,1,experiment,rt,Female,Right,20,1,0,594.1111111111111,464.0
996,RT_3-1,Right,4,Right,602,-6,-1,None,Incongruent,y,4.0,1,experiment,rt,Female,Right,20,1,0,648.9193548387096,602.0
997,RT_3-1,Right,4,Right,531,-33,-33,Sound_1,Incongruent,n,,1,experiment,rt,Female,Right,20,1,0,648.9193548387096,531.0
998,RT_3-1,Right,7,Right,632,53,49,Sound_1,Incongruent,y,7.0,1,experiment,rt,Female,Right,20,1,0,648.9193548387096,632.0
999,RT_3-1,Right,7,Right,565,-42,-38,Sound_1,None,y,7.0,1,experiment,rt,Female,Right,20,1,0,594.1111111111111,565.0
1000,RT_3-1,Left,3,Left,566,7,0,Sound_1,None,n,,1,experiment,rt,Female,Right,20,1,0,594.1111111111111,566.0
1001,RT_3-1,Right,1,Right,533,-30,-24,None,Congruent,y,1.0,1,experiment,rt,Female,Right,20,1,0,604.5,533.0
1002,RT_3-1,Left,7,Left,597,6,4,Sound_1,Congruent,n,,1,experiment,rt,Female,Right,20,1,0,604.5,597.0
1003,RT_3-1,Right,3,Right,732,45,60,Sound_1,Incongruent,n,,1,experiment,rt,Female,Right,20,1,0,648.9193548387096,732.0
1004,RT_3-1,Right,4,Right,498,-57,-60,None,Congruent,y,4.0,1,experiment,rt,Female,Right,20,1,0,604.5,498.0
1005,RT_3-1,Right,1,Right,699,1,2,None,Congruent,n,,1,experiment,rt,Female,Right,20,1,0,604.5,699.0
1006,RT_3-1,Left,3,Left,665,58,53,Sound_1,Congruent,y,3.0,1,experiment,rt,Female,Right,20,1,0,604.5,665.0
1007,RT_3-1,Left,3,Left,699,0,0,None,Incongruent,n,,1,experiment,rt,Female,Right,20,1,0,648.9193548387096,699.0
1008,RT_3-1,Right,7,Right,698,-51,-48,Sound_1,Incongruent,n,,1,experiment,rt,Female,Right,20,1,0,648.9193548387096,698.0
1009,RT_3-1,Right,4,Right,532,41,43,None,None,y,4.0,1,experiment,rt,Female,Right,20,1,0,594.1111111111111,532.0
1010,RT_3-1,Right,4,Right,666,-3,-2,None,Congruent,n,,1,experiment,rt,Female,Right,20,1,0,604.5,666.0
1011,RT_3-1,Right,1,Right,499,47,45,None,None,y,1.0,1,experiment,rt,Female,Right,20,1,0,594.1111111111111,499.0
1012,RT_3-1,Left,5,Left,564,-44,-43,Sound_1,Incongruent,y,5.0,1,experiment,rt,Female,Right,20,1,0,648.9193548387096,564.0
1013,RT_3-1,Right,7,Right,533,39,23,None,None,y,7.0,1,experiment,rt,Female,Right,20,1,0,594.1111111111111,533.0
1014,RT_3-1,Right,8,Right,698,0,7,Sound_1,Incongruent,n,,1,experiment,rt,Female,Right,20,1,0,648.9193548387096,698.0
1015,RT_3-1,Left,4,Left,833,42,43,None,Incongruent,n,,1,experiment,rt,Female,Right,20,1,0,648.9193548387096,833.0
1016,RT_3-1,Right,4,Right,565,4,5,Sound_1,Congruent,y,4.0,1,experiment,rt,Female,Right,20,1,0,604.5,565.0
1017,RT_3-1,Right,8,Right,532,-57,-59,None,None,y,8.0,1,experiment,rt,Female,Right,20,1,0,594.1111111111111,532.0
1018,RT_3-1,Left,1,Left,532,11,0,None,Incongruent,y,1.0,1,experiment,rt,Female,Right,20,1,0,648.9193548387096,532.0
1019,RT_3-1,Left,2,Left,564,-58,-56,Sound_1,Incongruent,y,2.0,1,experiment,rt,Female,Right,20,1,0,648.9193548387096,564.0
1020,RT_3-1,Left,3,Left,732,42,32,None,Congruent,n,,1,experiment,rt,Female,Right,20,1,0,604.5,732.0
1021,RT_3-1,Right,6,Left,599,0,8,Sound_1,Congruent,n,,1,experiment,rt,Female,Right,20,0,1,604.5,599.0
1022,RT_3-1,Left,4,Left,565,-44,-44,Sound_1,Congruent,y,4.0,1,experiment,rt,Female,Right,20,1,0,604.5,565.0
1023,RT_3-1,Left,1,Left,603,41,36,None,Congruent,y,1.0,1,experiment,rt,Female,Right,20,1,0,604.5,603.0
1024,RT_3-1,Right,2,Right,534,-34,-30,Sound_1,Incongruent,y,2.0,1,experiment,rt,Female,Right,20,1,0,648.9193548387096,534.0
1025,RT_3-1,Right,2,Right,563,32,33,Sound_1,None,n,,1,experiment,rt,Female,Right,20,1,0,594.1111111111111,563.0
1026,RT_3-1,Right,6,Right,698,-56,-50,None,Congruent,n,,1,experiment,rt,Female,Right,20,1,0,604.5,698.0
1027,RT_3-1,Right,6,Right,797,40,40,None,Congruent,y,6.0,1,experiment,rt,Female,Right,20,1,0,604.5,797.0
1028,RT_3-1,Right,6,Right,599,-48,-44,Sound_1,Congruent,y,6.0,1,experiment,rt,Female,Right,20,1,0,604.5,599.0
1029,RT_3-1,Left,7,Left,601,38,31,Sound_1,None,n,,1,experiment,rt,Female,Right,20,1,0,594.1111111111111,601.0
1030,RT_3-1,Left,7,Left,598,-1,3,None,Incongruent,y,7.0,1,experiment,rt,Female,Right,20,1,0,648.9193548387096,598.0
1031,RT_3-1,Left,7,Left,664,45,31,Sound_1,Incongruent,y,7.0,1,experiment,rt,Female,Right,20,1,0,648.9193548387096,664.0
1032,RT_3-1,Right,2,Right,533,-47,-45,Sound_1,Congruent,n,,1,experiment,rt,Female,Right,20,1,0,604.5,533.0
1033,RT_3-1,Right,6,Right,631,-8,-8,None,None,y,6.0,1,experiment,rt,Female,Right,20,1,0,594.1111111111111,631.0
1034,RT_3-1,Left,3,Left,632,-31,-31,Sound_1,Congruent,n,,1,experiment,rt,Female,Right,20,1,0,604.5,632.0
1035,RT_3-1,Left,4,Left,566,40,38,None,Congruent,y,4.0,1,experiment,rt,Female,Right,20,1,0,604.5,566.0
1036,RT_3-1,Left,1,Left,599,-30,-28,None,None,y,1.0,1,experiment,rt,Female,Right,20,1,0,594.1111111111111,599.0
1037,RT_3-1,Left,4,Left,597,39,39,Sound_1,Incongruent,y,4.0,1,experiment,rt,Female,Right,20,1,0,648.9193548387096,597.0
1038,RT_3-1,Left,2,Left,600,-8,-1,Sound_1,Incongruent,n,,1,experiment,rt,Female,Right,20,1,0,648.9193548387096,600.0
1039,RT_3-1,Right,5,Right,632,-41,-40,Sound_1,Congruent,n,,1,experiment,rt,Female,Right,20,1,0,604.5,632.0
1040,RT_3-1,Right,3,Right,531,-9,-8,Sound_1,Congruent,n,,1,experiment,rt,Female,Right,20,1,0,604.5,531.0
1041,RT_3-1,Right,4,Right,531,-47,-43,Sound_1,None,y,4.0,1,experiment,rt,Female,Right,20,1,0,594.1111111111111,531.0
1042,RT_3-1,Right,1,Right,598,55,51,Sound_1,Incongruent,y,1.0,1,experiment,rt,Female,Right,20,1,0,648.9193548387096,598.0
1043,RT_3-1,Left,4,Left,534,-5,-5,Sound_1,None,y,4.0,1,experiment,rt,Female,Right,20,1,0,594.1111111111111,534.0
1044,RT_3-1,Right,3,Right,565,-42,-36,None,Congruent,n,,1,experiment,rt,Female,Right,20,1,0,604.5,565.0
1045,RT_3-1,Left,2,Left,665,43,41,Sound_1,None,y,2.0,1,experiment,rt,Female,Right,20,1,0,594.1111111111111,665.0
1046,RT_3-1,Right,8,None,1001,-57,-55,None,Incongruent,n,,1,experiment,rt,Female,Right,20,0,1,648.9193548387096,648.9193548387096
1047,RT_3-1,Right,5,None,1001,48,46,None,Congruent,n,,1,experiment,rt,Female,Right,20,0,1,604.5,604.5
1048,RT_3-1,Left,6,None,1001,-46,-41,None,None,n,,1,experiment,rt,Female,Right,20,0,1,594.1111111111111,594.1111111111111
1049,RT_3-1,Right,6,Right,764,39,33,Sound_1,None,y,6.0,1,experiment,rt,Female,Right,20,1,0,594.1111111111111,764.0
1050,RT_3-1,Left,3,Left,599,-4,1,None,Congruent,y,3.0,1,experiment,rt,Female,Right,20,1,0,604.5,599.0
