subj,stimType,stimPos,resp,rt,initWheelPos,finalWheelPos,tone,flanker,cue,cuePos,trialNum,phase,bias,sex,hand,age,acc,err
RT_9-1,Right,3,Right,832,5,1,None,None,y,3,1,practice,rt,Male,Right,21,1,0
RT_9-1,Right,1,Right,632,-57,-25,None,Congruent,y,1,1,practice,rt,Male,Right,21,1,0
RT_9-1,Right,4,Right,700,38,36,None,Incongruent,n,NA,1,practice,rt,Male,Right,21,1,0
RT_9-1,Left,4,Right,466,-46,-42,Sound_1,Incongruent,n,NA,1,practice,rt,Male,Right,21,0,1
RT_9-1,Right,8,Right,665,1,-1,Sound_1,None,y,8,1,practice,rt,Male,Right,21,1,0
RT_9-1,Right,5,Right,633,36,36,None,Congruent,n,NA,1,practice,rt,Male,Right,21,1,0
RT_9-1,Left,7,Left,598,3,0,Sound_1,Congruent,n,NA,1,practice,rt,Male,Right,21,1,0
RT_9-1,Left,7,Left,732,-42,-44,None,Congruent,n,NA,1,practice,rt,Male,Right,21,1,0
RT_9-1,Left,5,Left,699,35,33,None,None,n,NA,1,practice,rt,Male,Right,21,1,0
RT_9-1,Left,2,Left,530,-38,-38,Sound_1,None,n,NA,1,practice,rt,Male,Right,21,1,0
RT_9-1,Left,5,Left,565,38,37,Sound_1,Congruent,n,NA,1,practice,rt,Male,Right,21,1,0
RT_9-1,Right,3,Right,498,-39,-39,Sound_1,None,n,NA,1,practice,rt,Male,Right,21,1,0
RT_9-1,Right,2,Right,565,36,37,None,Incongruent,y,2,1,practice,rt,Male,Right,21,1,0
RT_9-1,Right,1,Right,599,2,2,None,Congruent,n,NA,1,practice,rt,Male,Right,21,1,0
RT_9-1,Left,8,Left,666,36,34,None,None,n,NA,1,practice,rt,Male,Right,21,1,0
RT_9-1,Left,4,Left,666,-2,2,None,None,n,NA,1,practice,rt,Male,Right,21,1,0
RT_9-1,Left,2,Left,498,36,33,Sound_1,None,y,2,1,practice,rt,Male,Right,21,1,0
RT_9-1,Left,8,Left,499,-1,0,Sound_1,Incongruent,n,NA,1,practice,rt,Male,Right,21,1,0
RT_9-1,Right,5,Left,633,-32,-32,None,Incongruent,n,NA,1,practice,rt,Male,Right,21,0,1
RT_9-1,Right,8,Right,632,42,42,None,Congruent,n,NA,1,practice,rt,Male,Right,21,1,0
RT_9-1,Left,3,Left,532,-35,-32,None,None,n,NA,1,practice,rt,Male,Right,21,1,0
RT_9-1,Left,5,Left,498,34,30,Sound_1,None,y,5,1,practice,rt,Male,Right,21,1,0
RT_9-1,Right,7,Right,631,0,1,None,Congruent,n,NA,1,practice,rt,Male,Right,21,1,0
RT_9-1,Left,6,Left,631,36,33,Sound_1,Congruent,y,6,1,practice,rt,Male,Right,21,1,0
RT_9-1,Right,7,Right,636,-43,-40,Sound_1,Incongruent,n,NA,1,experiment,rt,Male,Right,21,1,0
RT_9-1,Right,2,Right,498,37,38,Sound_1,Congruent,y,2,1,experiment,rt,Male,Right,21,1,0
RT_9-1,Right,6,Left,666,-31,-32,None,Congruent,n,NA,1,experiment,rt,Male,Right,21,0,1
RT_9-1,Left,4,Left,765,3,-5,None,None,n,NA,1,experiment,rt,Male,Right,21,1,0
RT_9-1,Left,6,Left,666,43,39,Sound_1,Incongruent,n,NA,1,experiment,rt,Male,Right,21,1,0
RT_9-1,Right,5,Right,766,4,0,None,Congruent,y,5,1,experiment,rt,Male,Right,21,1,0
RT_9-1,Left,5,Left,732,-31,-32,None,Incongruent,n,NA,1,experiment,rt,Male,Right,21,1,0
RT_9-1,Left,7,Left,564,33,32,Sound_1,Incongruent,y,7,1,experiment,rt,Male,Right,21,1,0
RT_9-1,Left,6,Left,531,-41,-30,None,Incongruent,y,6,1,experiment,rt,Male,Right,21,1,0
RT_9-1,Right,3,Right,599,35,35,Sound_1,Incongruent,n,NA,1,experiment,rt,Male,Right,21,1,0
RT_9-1,Left,7,Left,699,-43,-44,Sound_1,Incongruent,n,NA,1,experiment,rt,Male,Right,21,1,0
RT_9-1,Right,7,Right,565,48,47,None,None,y,7,1,experiment,rt,Male,Right,21,1,0
RT_9-1,Left,3,Left,699,-2,-1,None,Congruent,y,3,1,experiment,rt,Male,Right,21,1,0
RT_9-1,Right,1,Right,799,-52,-50,None,None,n,NA,1,experiment,rt,Male,Right,21,1,0
RT_9-1,Right,7,Right,599,45,42,None,Incongruent,n,NA,1,experiment,rt,Male,Right,21,1,0
RT_9-1,Left,1,Left,564,-46,-46,Sound_1,Congruent,y,1,1,experiment,rt,Male,Right,21,1,0
RT_9-1,Right,5,Right,465,34,29,Sound_1,Congruent,y,5,1,experiment,rt,Male,Right,21,1,0
RT_9-1,Left,8,Left,598,-37,-34,None,Congruent,y,8,1,experiment,rt,Male,Right,21,1,0
RT_9-1,Right,4,Right,499,33,34,None,None,y,4,1,experiment,rt,Male,Right,21,1,0
RT_9-1,Left,5,Left,832,-41,-40,Sound_1,Incongruent,y,5,1,experiment,rt,Male,Right,21,1,0
RT_9-1,Right,4,Right,566,45,44,None,Incongruent,n,NA,1,experiment,rt,Male,Right,21,1,0
RT_9-1,Left,5,Left,565,-57,-28,None,Congruent,y,5,1,experiment,rt,Male,Right,21,1,0
RT_9-1,Right,6,Right,564,0,-2,Sound_1,Incongruent,y,6,1,experiment,rt,Male,Right,21,1,0
RT_9-1,Left,3,Left,665,42,41,Sound_1,Incongruent,n,NA,1,experiment,rt,Male,Right,21,1,0
RT_9-1,Left,7,Left,732,-54,-55,None,Congruent,n,NA,1,experiment,rt,Male,Right,21,1,0
RT_9-1,Right,5,Right,566,5,0,Sound_1,Incongruent,n,NA,1,experiment,rt,Male,Right,21,1,0
RT_9-1,Right,3,Right,733,42,40,None,None,n,NA,1,experiment,rt,Male,Right,21,1,0
RT_9-1,Left,2,Left,598,-40,-39,Sound_1,Incongruent,y,2,1,experiment,rt,Male,Right,21,1,0
RT_9-1,Left,1,Left,732,49,47,None,Incongruent,n,NA,1,experiment,rt,Male,Right,21,1,0
RT_9-1,Left,6,Left,532,-48,-47,Sound_1,None,y,6,1,experiment,rt,Male,Right,21,1,0
RT_9-1,Left,1,Left,633,4,-4,Sound_1,Congruent,n,NA,1,experiment,rt,Male,Right,21,1,0
RT_9-1,Left,2,Left,531,40,39,Sound_1,None,y,2,1,experiment,rt,Male,Right,21,1,0
RT_9-1,Right,3,Right,832,-39,-33,Sound_1,None,n,NA,1,experiment,rt,Male,Right,21,1,0
RT_9-1,Right,6,Right,699,34,34,None,None,n,NA,1,experiment,rt,Male,Right,21,1,0
RT_9-1,Right,1,Right,498,-2,0,Sound_1,Congruent,y,1,1,experiment,rt,Male,Right,21,1,0
RT_9-1,Right,2,Right,466,-45,-45,Sound_1,Congruent,n,NA,1,experiment,rt,Male,Right,21,1,0
RT_9-1,Right,4,Right,465,-3,0,Sound_1,Congruent,y,4,1,experiment,rt,Male,Right,21,1,0
RT_9-1,Left,7,Left,599,-38,-37,None,None,y,7,1,experiment,rt,Male,Right,21,1,0
RT_9-1,Left,8,Left,532,40,45,Sound_1,None,y,8,1,experiment,rt,Male,Right,21,1,0
RT_9-1,Right,2,Right,499,-2,0,None,Congruent,y,2,1,experiment,rt,Male,Right,21,1,0
RT_9-1,Left,3,Left,566,-47,-46,None,Incongruent,y,3,1,experiment,rt,Male,Right,21,1,0
RT_9-1,Left,6,Left,699,0,-3,None,Incongruent,n,NA,1,experiment,rt,Male,Right,21,1,0
RT_9-1,Right,5,Right,532,35,33,None,Incongruent,y,5,1,experiment,rt,Male,Right,21,1,0
RT_9-1,Right,7,Left,497,-3,-4,Sound_1,Congruent,y,7,1,experiment,rt,Male,Right,21,0,1
RT_9-1,Right,2,Right,532,37,37,None,Congruent,n,NA,1,experiment,rt,Male,Right,21,1,0
RT_9-1,Left,2,Left,498,-3,-4,Sound_1,Congruent,y,2,1,experiment,rt,Male,Right,21,1,0
RT_9-1,Right,1,Right,932,42,40,None,Incongruent,n,NA,1,experiment,rt,Male,Right,21,1,0
RT_9-1,Left,8,Right,532,-1,-1,Sound_1,Congruent,y,8,1,experiment,rt,Male,Right,21,0,1
RT_9-1,Left,5,Left,665,-32,-35,Sound_1,None,n,NA,1,experiment,rt,Male,Right,21,1,0
RT_9-1,Right,1,Right,498,0,-2,Sound_1,None,n,NA,1,experiment,rt,Male,Right,21,1,0
RT_9-1,Right,4,Right,598,35,36,Sound_1,Incongruent,y,4,1,experiment,rt,Male,Right,21,1,0
RT_9-1,Right,8,Right,598,-32,-33,Sound_1,Congruent,n,NA,1,experiment,rt,Male,Right,21,1,0
RT_9-1,Left,2,Left,668,38,34,None,Incongruent,y,2,1,experiment,rt,Male,Right,21,1,0
RT_9-1,Right,6,Right,698,-45,-41,Sound_1,Congruent,y,6,1,experiment,rt,Male,Right,21,1,0
RT_9-1,Right,2,Right,666,0,0,Sound_1,Incongruent,n,NA,1,experiment,rt,Male,Right,21,1,0
RT_9-1,Right,7,Right,532,43,39,Sound_1,Congruent,n,NA,1,experiment,rt,Male,Right,21,1,0
RT_9-1,Left,4,Left,531,-2,0,Sound_1,None,y,4,1,experiment,rt,Male,Right,21,1,0
RT_9-1,Left,5,Left,732,34,32,Sound_1,Congruent,n,NA,1,experiment,rt,Male,Right,21,1,0
RT_9-1,Right,3,Right,531,2,0,Sound_1,Incongruent,y,3,1,experiment,rt,Male,Right,21,1,0
RT_9-1,Right,1,Right,567,-43,-29,Sound_1,Incongruent,n,NA,1,experiment,rt,Male,Right,21,1,0
RT_9-1,Right,7,Right,566,3,-1,Sound_1,None,n,NA,1,experiment,rt,Male,Right,21,1,0
RT_9-1,Left,6,Left,699,37,32,None,Congruent,n,NA,1,experiment,rt,Male,Right,21,1,0
RT_9-1,Right,8,Right,566,-1,1,None,None,n,NA,1,experiment,rt,Male,Right,21,1,0
RT_9-1,Left,5,Left,599,47,44,None,Incongruent,y,5,1,experiment,rt,Male,Right,21,1,0
RT_9-1,Right,5,Right,498,-34,-33,Sound_1,Incongruent,y,5,1,experiment,rt,Male,Right,21,1,0
RT_9-1,Left,7,Left,799,38,33,None,Incongruent,n,NA,1,experiment,rt,Male,Right,21,1,0
RT_9-1,Right,3,Right,668,-30,-41,None,Congruent,n,NA,1,experiment,rt,Male,Right,21,1,0
RT_9-1,Left,7,Left,733,4,0,None,None,n,NA,1,experiment,rt,Male,Right,21,1,0
RT_9-1,Left,1,Left,598,45,41,Sound_1,Incongruent,y,1,1,experiment,rt,Male,Right,21,1,0
RT_9-1,Left,1,Left,531,-3,0,Sound_1,None,y,1,1,experiment,rt,Male,Right,21,1,0
RT_9-1,Right,8,Right,599,30,46,Sound_1,None,n,NA,1,experiment,rt,Male,Right,21,1,0
RT_9-1,Left,8,Left,665,-37,-38,Sound_1,Incongruent,y,8,1,experiment,rt,Male,Right,21,1,0
RT_9-1,Right,6,Right,565,35,34,Sound_1,None,y,6,1,experiment,rt,Male,Right,21,1,0
RT_9-1,Left,8,Left,632,-33,-31,Sound_1,None,n,NA,1,experiment,rt,Male,Right,21,1,0
RT_9-1,Left,8,Left,833,33,33,None,None,n,NA,1,experiment,rt,Male,Right,21,1,0
RT_9-1,Left,4,Left,565,-7,0,None,Incongruent,y,4,1,experiment,rt,Male,Right,21,1,0
RT_9-1,Left,2,Left,732,35,33,Sound_1,Congruent,n,NA,1,experiment,rt,Male,Right,21,1,0
RT_9-1,Left,5,Left,732,0,1,None,Congruent,n,NA,1,experiment,rt,Male,Right,21,1,0
RT_9-1,Left,4,Left,599,34,32,Sound_1,None,n,NA,1,experiment,rt,Male,Right,21,1,0
RT_9-1,Left,3,Left,699,0,2,None,Incongruent,n,NA,1,experiment,rt,Male,Right,21,1,0
RT_9-1,Left,2,Left,666,-33,-31,Sound_1,None,n,NA,1,experiment,rt,Male,Right,21,1,0
RT_9-1,Right,6,Right,599,5,0,Sound_1,Congruent,n,NA,1,experiment,rt,Male,Right,21,1,0
RT_9-1,Right,6,Right,499,-35,-34,Sound_1,None,n,NA,1,experiment,rt,Male,Right,21,1,0
RT_9-1,Left,5,Left,531,0,-3,Sound_1,Congruent,y,5,1,experiment,rt,Male,Right,21,1,0
RT_9-1,Left,3,Left,599,30,30,None,None,y,3,1,experiment,rt,Male,Right,21,1,0
RT_9-1,Right,4,Right,632,-5,-1,None,Incongruent,y,4,1,experiment,rt,Male,Right,21,1,0
RT_9-1,Left,1,Left,766,-39,-39,None,Congruent,n,NA,1,experiment,rt,Male,Right,21,1,0
RT_9-1,Right,3,Right,599,0,-2,Sound_1,Congruent,n,NA,1,experiment,rt,Male,Right,21,1,0
RT_9-1,Right,3,Right,566,-32,-33,None,Incongruent,y,3,1,experiment,rt,Male,Right,21,1,0
RT_9-1,Left,4,Left,498,36,34,None,Congruent,y,4,1,experiment,rt,Male,Right,21,1,0
RT_9-1,Right,4,Right,567,-3,-1,None,Congruent,n,NA,1,experiment,rt,Male,Right,21,1,0
RT_9-1,Right,1,Right,498,35,36,Sound_1,Congruent,n,NA,1,experiment,rt,Male,Right,21,1,0
RT_9-1,Left,5,Left,533,5,-2,None,None,y,5,1,experiment,rt,Male,Right,21,1,0
RT_9-1,Left,3,Left,533,-37,-39,Sound_1,None,y,3,1,experiment,rt,Male,Right,21,1,0
RT_9-1,Left,6,Left,532,35,35,Sound_1,Congruent,y,6,1,experiment,rt,Male,Right,21,1,0
RT_9-1,Right,8,Right,598,-4,0,None,Congruent,y,8,1,experiment,rt,Male,Right,21,1,0
RT_9-1,Left,7,Left,499,37,37,Sound_1,None,n,NA,1,experiment,rt,Male,Right,21,1,0
RT_9-1,Left,4,Left,666,-31,-31,None,None,y,4,1,experiment,rt,Male,Right,21,1,0
RT_9-1,Right,8,Right,563,35,37,Sound_1,Congruent,y,8,1,experiment,rt,Male,Right,21,1,0
RT_9-1,Right,8,Right,499,-30,-30,None,None,y,8,1,experiment,rt,Male,Right,21,1,0
RT_9-1,Right,6,Right,699,0,1,None,Incongruent,n,NA,1,experiment,rt,Male,Right,21,1,0
RT_9-1,Left,3,Left,665,-38,-38,None,None,n,NA,1,experiment,rt,Male,Right,21,1,0
RT_9-1,Left,5,Left,532,31,30,Sound_1,None,y,5,1,experiment,rt,Male,Right,21,1,0
RT_9-1,Right,5,Right,466,-2,0,Sound_1,None,y,5,1,experiment,rt,Male,Right,21,1,0
RT_9-1,Left,8,Left,533,34,32,Sound_1,Congruent,n,NA,1,experiment,rt,Male,Right,21,1,0
RT_9-1,Left,4,Left,633,0,0,Sound_1,Congruent,n,NA,1,experiment,rt,Male,Right,21,1,0
RT_9-1,Right,7,Right,531,-31,-30,Sound_1,None,y,7,1,experiment,rt,Male,Right,21,1,0
RT_9-1,Right,5,Right,765,32,36,None,Congruent,n,NA,1,experiment,rt,Male,Right,21,1,0
RT_9-1,Right,4,Right,565,-39,-37,Sound_1,Incongruent,n,NA,1,experiment,rt,Male,Right,21,1,0
RT_9-1,Left,7,Left,500,3,-3,None,Incongruent,y,7,1,experiment,rt,Male,Right,21,1,0
RT_9-1,Right,8,Right,632,39,34,None,Incongruent,y,8,1,experiment,rt,Male,Right,21,1,0
RT_9-1,Right,7,Right,566,-43,-44,None,None,n,NA,1,experiment,rt,Male,Right,21,1,0
RT_9-1,Left,4,Left,531,31,30,Sound_1,Incongruent,y,4,1,experiment,rt,Male,Right,21,1,0
RT_9-1,Right,6,Right,499,-3,-2,None,None,y,6,1,experiment,rt,Male,Right,21,1,0
RT_9-1,Right,5,Right,699,-34,-34,None,Incongruent,n,NA,1,experiment,rt,Male,Right,21,1,0
RT_9-1,Right,8,Right,599,35,32,None,Congruent,n,NA,1,experiment,rt,Male,Right,21,1,0
RT_9-1,Right,2,Right,533,-38,-37,None,None,y,2,1,experiment,rt,Male,Right,21,1,0
RT_9-1,Right,2,Right,431,-1,-1,Sound_1,None,y,2,1,experiment,rt,Male,Right,21,1,0
RT_9-1,Right,1,Right,432,-40,-40,Sound_1,None,y,1,1,experiment,rt,Male,Right,21,1,0
RT_9-1,Left,7,Left,499,32,29,None,Congruent,y,7,1,experiment,rt,Male,Right,21,1,0
RT_9-1,Right,7,Right,632,0,1,None,Incongruent,y,7,1,experiment,rt,Male,Right,21,1,0
RT_9-1,Left,4,Left,800,-44,-43,None,Congruent,n,NA,1,experiment,rt,Male,Right,21,1,0
RT_9-1,Left,3,Left,533,0,-4,Sound_1,None,n,NA,1,experiment,rt,Male,Right,21,1,0
RT_9-1,Right,4,Left,532,-40,-40,None,Congruent,y,4,1,experiment,rt,Male,Right,21,0,1
RT_9-1,Right,1,Right,466,8,3,None,Incongruent,y,1,1,experiment,rt,Male,Right,21,1,0
RT_9-1,Right,1,Right,532,-43,-40,None,Congruent,y,1,1,experiment,rt,Male,Right,21,1,0
RT_9-1,Left,8,Left,632,33,28,None,Incongruent,y,8,1,experiment,rt,Male,Right,21,1,0
RT_9-1,Left,6,Left,699,-4,-1,Sound_1,None,n,NA,1,experiment,rt,Male,Right,21,1,0
RT_9-1,Right,4,Right,499,41,41,Sound_1,Congruent,n,NA,1,experiment,rt,Male,Right,21,1,0
RT_9-1,Left,2,Left,532,-35,-36,None,Congruent,y,2,1,experiment,rt,Male,Right,21,1,0
RT_9-1,Right,3,Right,465,3,0,None,None,y,3,1,experiment,rt,Male,Right,21,1,0
RT_9-1,Right,7,Right,598,31,31,Sound_1,Incongruent,y,7,1,experiment,rt,Male,Right,21,1,0
RT_9-1,Left,3,Left,632,-43,-45,Sound_1,Congruent,n,NA,1,experiment,rt,Male,Right,21,1,0
RT_9-1,Right,2,Right,499,37,38,None,Incongruent,y,2,1,experiment,rt,Male,Right,21,1,0
RT_9-1,Right,8,Right,531,-1,0,Sound_1,None,y,8,1,experiment,rt,Male,Right,21,1,0
RT_9-1,Left,5,Left,766,30,29,None,None,n,NA,1,experiment,rt,Male,Right,21,1,0
RT_9-1,Right,7,Left,499,-51,-50,None,Congruent,y,7,1,experiment,rt,Male,Right,21,0,1
RT_9-1,Right,3,Right,566,1,1,None,Incongruent,n,NA,1,experiment,rt,Male,Right,21,1,0
RT_9-1,Right,1,Right,499,33,33,None,None,y,1,1,experiment,rt,Male,Right,21,1,0
RT_9-1,Left,4,Left,630,-34,-41,Sound_1,Congruent,y,4,1,experiment,rt,Male,Right,21,1,0
RT_9-1,Left,6,Left,631,0,-2,Sound_1,Incongruent,y,6,1,experiment,rt,Male,Right,21,1,0
RT_9-1,Right,1,Right,497,31,32,Sound_1,Incongruent,y,1,1,experiment,rt,Male,Right,21,1,0
RT_9-1,Right,2,Right,633,-39,-38,None,Incongruent,n,NA,1,experiment,rt,Male,Right,21,1,0
RT_9-1,Right,2,Right,632,2,-1,None,None,n,NA,1,experiment,rt,Male,Right,21,1,0
RT_9-1,Left,8,Left,732,-48,-47,None,Incongruent,n,NA,1,experiment,rt,Male,Right,21,1,0
RT_9-1,Right,3,Right,499,44,42,None,Congruent,y,3,1,experiment,rt,Male,Right,21,1,0
RT_9-1,Right,8,Right,465,-46,-45,Sound_1,Incongruent,y,8,1,experiment,rt,Male,Right,21,1,0
RT_9-1,Right,5,Right,732,0,-3,None,None,n,NA,1,experiment,rt,Male,Right,21,1,0
RT_9-1,Left,3,Left,799,36,36,None,Congruent,n,NA,1,experiment,rt,Male,Right,21,1,0
RT_9-1,Left,3,Left,664,-5,-3,Sound_1,Incongruent,y,3,1,experiment,rt,Male,Right,21,1,0
RT_9-1,Right,2,Right,465,-34,-32,Sound_1,Incongruent,y,2,1,experiment,rt,Male,Right,21,1,0
RT_9-1,Left,8,Left,632,2,-1,Sound_1,Incongruent,n,NA,1,experiment,rt,Male,Right,21,1,0
RT_9-1,Right,8,Right,566,-37,-38,None,Incongruent,n,NA,1,experiment,rt,Male,Right,21,1,0
RT_9-1,Left,6,Left,565,-1,-4,None,Congruent,y,6,1,experiment,rt,Male,Right,21,1,0
RT_9-1,Right,5,Right,499,34,36,Sound_1,None,n,NA,1,experiment,rt,Male,Right,21,1,0
RT_9-1,Left,8,Left,532,-7,-6,None,None,y,8,1,experiment,rt,Male,Right,21,1,0
RT_9-1,Right,3,Right,464,34,36,Sound_1,None,y,3,1,experiment,rt,Male,Right,21,1,0
RT_9-1,Left,7,Left,431,-2,0,Sound_1,None,y,7,1,experiment,rt,Male,Right,21,1,0
RT_9-1,Left,6,Left,567,-41,-41,None,None,n,NA,1,experiment,rt,Male,Right,21,1,0
RT_9-1,Left,4,Left,833,34,31,None,Incongruent,n,NA,1,experiment,rt,Male,Right,21,1,0
RT_9-1,Left,6,Left,532,-43,-42,Sound_1,Congruent,n,NA,1,experiment,rt,Male,Right,21,1,0
RT_9-1,Left,8,Left,671,0,-3,None,Congruent,n,NA,1,experiment,rt,Male,Right,21,1,0
RT_9-1,Left,3,Left,498,36,33,Sound_1,Congruent,y,3,1,experiment,rt,Male,Right,21,1,0
RT_9-1,Right,7,Right,699,-9,-2,None,Congruent,n,NA,1,experiment,rt,Male,Right,21,1,0
RT_9-1,Right,4,Right,436,-36,-37,Sound_1,None,y,4,1,experiment,rt,Male,Right,21,1,0
RT_9-1,Left,6,Left,432,37,36,None,None,y,6,1,experiment,rt,Male,Right,21,1,0
RT_9-1,Left,2,Left,702,-3,-3,None,Congruent,n,NA,1,experiment,rt,Male,Right,21,1,0
RT_9-1,Right,6,Right,599,36,35,Sound_1,Incongruent,n,NA,1,experiment,rt,Male,Right,21,1,0
RT_9-1,Left,1,Left,699,-2,-3,None,Incongruent,y,1,1,experiment,rt,Male,Right,21,1,0
RT_9-1,Left,1,Left,700,-41,-36,Sound_1,Incongruent,n,NA,1,experiment,rt,Male,Right,21,1,0
RT_9-1,Left,1,Left,571,37,37,Sound_1,None,n,NA,1,experiment,rt,Male,Right,21,1,0
RT_9-1,Right,4,Right,636,-49,-48,None,None,n,NA,1,experiment,rt,Male,Right,21,1,0
RT_9-1,Left,1,Left,537,40,38,None,Congruent,y,1,1,experiment,rt,Male,Right,21,1,0
RT_9-1,Right,5,Right,470,-54,-48,None,None,y,5,1,experiment,rt,Male,Right,21,1,0
RT_9-1,Left,2,Left,599,0,-4,Sound_1,Incongruent,n,NA,1,experiment,rt,Male,Right,21,1,0
RT_9-1,Right,5,Right,499,-40,-37,Sound_1,Congruent,n,NA,1,experiment,rt,Male,Right,21,1,0
RT_9-1,Left,1,Left,769,0,-1,None,None,n,NA,1,experiment,rt,Male,Right,21,1,0
RT_9-1,Left,7,Left,531,-41,-41,Sound_1,Congruent,y,7,1,experiment,rt,Male,Right,21,1,0
RT_9-1,Left,7,Left,502,3,-1,Sound_1,Congruent,n,NA,1,experiment,rt,Male,Right,21,1,0
RT_9-1,Left,2,Left,666,-35,-35,None,Incongruent,n,NA,1,experiment,rt,Male,Right,21,1,0
RT_9-1,Right,4,Right,505,3,1,Sound_1,None,n,NA,1,experiment,rt,Male,Right,21,1,0
RT_9-1,Left,1,Left,532,-35,-36,None,None,y,1,1,experiment,rt,Male,Right,21,1,0
RT_9-1,Left,5,Left,633,-1,-2,Sound_1,Incongruent,n,NA,1,experiment,rt,Male,Right,21,1,0
RT_9-1,Left,4,Left,567,-37,-36,Sound_1,Incongruent,n,NA,1,experiment,rt,Male,Right,21,1,0
RT_9-1,Left,2,Left,600,2,0,None,None,y,2,1,experiment,rt,Male,Right,21,1,0
RT_9-1,Right,2,Right,466,32,34,Sound_1,None,n,NA,1,experiment,rt,Male,Right,21,1,0
RT_9-1,Right,3,Right,498,-48,-48,Sound_1,Congruent,y,3,1,experiment,rt,Male,Right,21,1,0
RT_9-1,Right,6,Right,604,32,32,None,Congruent,y,6,1,experiment,rt,Male,Right,21,1,0
RT_9-1,Right,6,Right,599,-36,-41,None,Incongruent,y,6,1,experiment,rt,Male,Right,21,1,0
RT_9-1,Right,1,Right,638,8,3,None,Congruent,n,NA,1,experiment,rt,Male,Right,21,1,0
RT_9-1,Left,2,Left,666,34,31,None,None,n,NA,1,experiment,rt,Male,Right,21,1,0
RT_9-1,Right,8,Right,699,-4,-2,Sound_1,Incongruent,n,NA,1,experiment,rt,Male,Right,21,1,0
RT_6-1,Left,2,Left,831,-31,-26,Sound_1,None,n,NA,1,practice,rt,Other,Right,20,1,0
RT_6-1,Right,1,Right,798,0,2,None,Congruent,n,NA,1,practice,rt,Other,Right,20,1,0
RT_6-1,Left,7,Left,704,-37,-32,None,Congruent,n,NA,1,practice,rt,Other,Right,20,1,0
RT_6-1,Left,6,Left,531,36,26,Sound_1,Congruent,y,6,1,practice,rt,Other,Right,20,1,0
RT_6-1,Right,3,Right,533,-41,-39,Sound_1,None,n,NA,1,practice,rt,Other,Right,20,1,0
RT_6-1,Right,2,Right,399,34,19,None,Incongruent,y,2,1,practice,rt,Other,Right,20,1,0
RT_6-1,Right,7,Left,633,0,2,None,Congruent,n,NA,1,practice,rt,Other,Right,20,0,1
RT_6-1,Left,5,Right,166,32,32,Sound_1,Congruent,n,NA,1,practice,rt,Other,Right,20,0,1
RT_6-1,Right,8,Right,431,2,0,Sound_1,None,y,8,1,practice,rt,Other,Right,20,1,0
RT_6-1,Right,5,Left,499,-35,-34,None,Incongruent,n,NA,1,practice,rt,Other,Right,20,0,1
RT_6-1,Right,5,Right,702,39,35,None,Congruent,n,NA,1,practice,rt,Other,Right,20,1,0
RT_6-1,Left,3,Left,699,-30,-34,None,None,n,NA,1,practice,rt,Other,Right,20,1,0
RT_6-1,Left,5,Left,565,34,29,None,None,n,NA,1,practice,rt,Other,Right,20,1,0
RT_6-1,Left,4,Left,666,-1,-1,None,None,n,NA,1,practice,rt,Other,Right,20,1,0
RT_6-1,Right,8,Right,566,42,41,None,Congruent,n,NA,1,practice,rt,Other,Right,20,1,0
RT_6-1,Right,1,Right,432,-43,-45,None,Congruent,y,1,1,practice,rt,Other,Right,20,1,0
RT_6-1,Left,8,Right,603,41,38,None,None,n,NA,1,practice,rt,Other,Right,20,0,1
RT_6-1,Left,4,Left,665,-37,-34,Sound_1,Incongruent,n,NA,1,practice,rt,Other,Right,20,1,0
RT_6-1,Left,7,Left,497,3,-1,Sound_1,Congruent,n,NA,1,practice,rt,Other,Right,20,1,0
RT_6-1,Left,5,Left,368,31,29,Sound_1,None,y,5,1,practice,rt,Other,Right,20,1,0
RT_6-1,Left,8,Left,637,0,0,Sound_1,Incongruent,n,NA,1,practice,rt,Other,Right,20,1,0
RT_6-1,Right,4,Right,932,37,35,None,Incongruent,n,NA,1,practice,rt,Other,Right,20,1,0
RT_6-1,Right,3,Right,399,-1,0,None,None,y,3,1,practice,rt,Other,Right,20,1,0
RT_6-1,Left,2,Right,98,31,35,Sound_1,None,y,2,1,practice,rt,Other,Right,20,0,1
RT_6-1,Right,5,Left,602,-1,1,Sound_1,Incongruent,n,NA,1,experiment,rt,Other,Right,20,0,1
RT_6-1,Right,1,Right,397,-38,-38,Sound_1,None,y,1,1,experiment,rt,Other,Right,20,1,0
RT_6-1,Left,2,Left,498,0,-4,Sound_1,Congruent,y,2,1,experiment,rt,Other,Right,20,1,0
RT_6-1,Right,4,Right,799,-40,-36,None,None,n,NA,1,experiment,rt,Other,Right,20,1,0
RT_6-1,Right,8,Right,632,-7,0,None,None,n,NA,1,experiment,rt,Other,Right,20,1,0
RT_6-1,Left,6,Left,466,-33,-28,Sound_1,Congruent,n,NA,1,experiment,rt,Other,Right,20,1,0
RT_6-1,Left,1,Left,566,2,-2,Sound_1,Congruent,n,NA,1,experiment,rt,Other,Right,20,1,0
RT_6-1,Right,4,Right,365,-47,-46,Sound_1,None,y,4,1,experiment,rt,Other,Right,20,1,0
RT_6-1,Right,7,Right,836,43,42,None,Incongruent,n,NA,1,experiment,rt,Other,Right,20,1,0
RT_6-1,Right,2,Right,607,-2,3,None,None,n,NA,1,experiment,rt,Other,Right,20,1,0
RT_6-1,Left,8,Right,599,-57,-56,None,Incongruent,n,NA,1,experiment,rt,Other,Right,20,0,1
RT_6-1,Left,5,Right,532,3,1,Sound_1,Incongruent,n,NA,1,experiment,rt,Other,Right,20,0,1
RT_6-1,Right,4,Right,802,30,38,None,Incongruent,n,NA,1,experiment,rt,Other,Right,20,1,0
RT_6-1,Left,1,Left,599,-1,-1,None,None,n,NA,1,experiment,rt,Other,Right,20,1,0
RT_6-1,Right,2,Right,733,-33,-32,None,Incongruent,n,NA,1,experiment,rt,Other,Right,20,1,0
RT_6-1,Right,2,Right,473,44,42,None,Congruent,n,NA,1,experiment,rt,Other,Right,20,1,0
RT_6-1,Right,6,Right,565,-56,-29,Sound_1,None,n,NA,1,experiment,rt,Other,Right,20,1,0
RT_6-1,Left,6,Left,466,0,-1,Sound_1,None,n,NA,1,experiment,rt,Other,Right,20,1,0
RT_6-1,Right,4,Right,399,32,33,None,None,y,4,1,experiment,rt,Other,Right,20,1,0
RT_6-1,Left,7,Left,664,0,0,None,Incongruent,y,7,1,experiment,rt,Other,Right,20,1,0
RT_6-1,Left,3,Left,532,-36,-34,None,Incongruent,y,3,1,experiment,rt,Other,Right,20,1,0
RT_6-1,Left,5,Left,699,35,27,None,Incongruent,y,5,1,experiment,rt,Other,Right,20,1,0
RT_6-1,Left,1,Left,534,-40,-38,None,Congruent,n,NA,1,experiment,rt,Other,Right,20,1,0
RT_6-1,Right,5,Right,562,35,32,None,Incongruent,y,5,1,experiment,rt,Other,Right,20,1,0
RT_6-1,Left,2,Left,499,-39,-40,Sound_1,None,n,NA,1,experiment,rt,Other,Right,20,1,0
RT_6-1,Right,4,Left,497,37,32,Sound_1,Incongruent,y,4,1,experiment,rt,Other,Right,20,0,1
RT_6-1,Right,7,Right,533,-42,-38,None,Congruent,y,7,1,experiment,rt,Other,Right,20,1,0
RT_6-1,Left,2,Left,566,35,30,Sound_1,Congruent,n,NA,1,experiment,rt,Other,Right,20,1,0
RT_6-1,Left,6,Left,597,-1,-5,Sound_1,Incongruent,y,6,1,experiment,rt,Other,Right,20,1,0
RT_6-1,Right,3,Right,799,44,42,None,None,n,NA,1,experiment,rt,Other,Right,20,1,0
RT_6-1,Left,4,Left,468,-37,-32,None,None,y,4,1,experiment,rt,Other,Right,20,1,0
RT_6-1,Right,7,Right,664,0,-1,None,Congruent,n,NA,1,experiment,rt,Other,Right,20,1,0
RT_6-1,Left,7,Left,334,-31,-33,None,None,y,7,1,experiment,rt,Other,Right,20,1,0
RT_6-1,Right,2,Right,399,31,32,None,Incongruent,y,2,1,experiment,rt,Other,Right,20,1,0
RT_6-1,Left,4,Left,566,-2,-4,Sound_1,Congruent,n,NA,1,experiment,rt,Other,Right,20,1,0
RT_6-1,Left,2,Left,600,-34,-32,None,Congruent,y,2,1,experiment,rt,Other,Right,20,1,0
RT_6-1,Left,2,Left,532,-1,-3,None,None,y,2,1,experiment,rt,Other,Right,20,1,0
RT_6-1,Left,8,Left,664,-34,-31,Sound_1,Incongruent,y,8,1,experiment,rt,Other,Right,20,1,0
RT_6-1,Right,1,Right,532,-1,0,None,Incongruent,y,1,1,experiment,rt,Other,Right,20,1,0
RT_6-1,Right,7,Left,599,-33,-39,Sound_1,Incongruent,n,NA,1,experiment,rt,Other,Right,20,0,1
RT_6-1,Right,5,Right,498,1,1,None,Congruent,y,5,1,experiment,rt,Other,Right,20,1,0
RT_6-1,Right,8,Right,467,35,32,None,Incongruent,y,8,1,experiment,rt,Other,Right,20,1,0
RT_6-1,Right,4,Right,632,0,-1,None,Congruent,n,NA,1,experiment,rt,Other,Right,20,1,0
RT_6-1,Left,3,Left,705,42,40,None,Congruent,n,NA,1,experiment,rt,Other,Right,20,1,0
RT_6-1,Left,6,Left,531,-30,-36,Sound_1,None,y,6,1,experiment,rt,Other,Right,20,1,0
RT_6-1,Left,8,Left,566,51,53,None,Incongruent,y,8,1,experiment,rt,Other,Right,20,1,0
RT_6-1,Right,3,Right,665,-39,-33,None,Congruent,n,NA,1,experiment,rt,Other,Right,20,1,0
RT_6-1,Right,7,Right,498,44,37,None,None,y,7,1,experiment,rt,Other,Right,20,1,0
RT_6-1,Right,8,Right,433,-35,-31,Sound_1,Incongruent,y,8,1,experiment,rt,Other,Right,20,1,0
RT_6-1,Right,7,Right,533,2,-1,Sound_1,None,n,NA,1,experiment,rt,Other,Right,20,1,0
RT_6-1,Right,2,Right,466,43,43,Sound_1,None,n,NA,1,experiment,rt,Other,Right,20,1,0
RT_6-1,Right,2,Right,365,-52,-50,Sound_1,Incongruent,y,2,1,experiment,rt,Other,Right,20,1,0
RT_6-1,Left,4,Left,666,42,55,None,Congruent,y,4,1,experiment,rt,Other,Right,20,1,0
RT_6-1,Right,5,Right,402,-45,-42,None,None,y,5,1,experiment,rt,Other,Right,20,1,0
RT_6-1,Right,1,Right,633,39,38,None,Incongruent,n,NA,1,experiment,rt,Other,Right,20,1,0
RT_6-1,Right,3,Left,531,0,0,Sound_1,Incongruent,y,3,1,experiment,rt,Other,Right,20,0,1
RT_6-1,Left,1,Left,698,31,42,Sound_1,Incongruent,y,1,1,experiment,rt,Other,Right,20,1,0
RT_6-1,Right,7,Right,498,-39,-42,Sound_1,None,y,7,1,experiment,rt,Other,Right,20,1,0
RT_6-1,Left,5,Left,666,38,36,None,None,n,NA,1,experiment,rt,Other,Right,20,1,0
RT_6-1,Left,4,Left,531,1,4,Sound_1,None,y,4,1,experiment,rt,Other,Right,20,1,0
RT_6-1,Left,7,Left,634,-52,-57,Sound_1,Incongruent,n,NA,1,experiment,rt,Other,Right,20,1,0
RT_6-1,Left,5,Left,800,6,8,None,Congruent,n,NA,1,experiment,rt,Other,Right,20,1,0
RT_6-1,Right,3,Right,499,-31,-31,Sound_1,None,n,NA,1,experiment,rt,Other,Right,20,1,0
RT_6-1,Left,1,Left,531,3,4,Sound_1,None,y,1,1,experiment,rt,Other,Right,20,1,0
RT_6-1,Left,6,Left,698,45,45,None,Congruent,n,NA,1,experiment,rt,Other,Right,20,1,0
RT_6-1,Right,4,Right,501,-2,0,Sound_1,None,n,NA,1,experiment,rt,Other,Right,20,1,0
RT_6-1,Left,2,Left,498,33,33,Sound_1,None,y,2,1,experiment,rt,Other,Right,20,1,0
RT_6-1,Right,1,Right,666,-36,-32,None,None,n,NA,1,experiment,rt,Other,Right,20,1,0
RT_6-1,Left,6,Left,365,41,39,Sound_1,Congruent,y,6,1,experiment,rt,Other,Right,20,1,0
RT_6-1,Left,2,Left,865,-38,-37,None,Incongruent,n,NA,1,experiment,rt,Other,Right,20,1,0
RT_6-1,Left,8,Left,463,41,47,Sound_1,None,y,8,1,experiment,rt,Other,Right,20,1,0
RT_6-1,Left,4,Left,599,0,2,None,Incongruent,y,4,1,experiment,rt,Other,Right,20,1,0
RT_6-1,Right,8,Right,467,36,46,Sound_1,None,n,NA,1,experiment,rt,Other,Right,20,1,0
RT_6-1,Left,4,Left,671,-35,-46,None,Congruent,n,NA,1,experiment,rt,Other,Right,20,1,0
RT_6-1,Left,7,Left,364,50,41,Sound_1,Incongruent,y,7,1,experiment,rt,Other,Right,20,1,0
RT_6-1,Right,2,Right,665,-4,-7,Sound_1,Incongruent,n,NA,1,experiment,rt,Other,Right,20,1,0
RT_6-1,Left,4,Left,665,48,46,Sound_1,Incongruent,y,4,1,experiment,rt,Other,Right,20,1,0
RT_6-1,Left,1,Left,465,-37,-35,None,None,y,1,1,experiment,rt,Other,Right,20,1,0
RT_6-1,Right,1,Right,463,4,2,Sound_1,Congruent,y,1,1,experiment,rt,Other,Right,20,1,0
RT_6-1,Right,3,Right,699,54,63,Sound_1,Incongruent,n,NA,1,experiment,rt,Other,Right,20,1,0
RT_6-1,Left,3,Left,599,-2,-1,None,Congruent,y,3,1,experiment,rt,Other,Right,20,1,0
RT_6-1,Left,7,Left,566,-41,-41,None,Congruent,n,NA,1,experiment,rt,Other,Right,20,1,0
RT_6-1,Left,5,Left,531,48,46,Sound_1,None,y,5,1,experiment,rt,Other,Right,20,1,0
RT_6-1,Right,4,Right,666,-50,-51,Sound_1,Incongruent,n,NA,1,experiment,rt,Other,Right,20,1,0
RT_6-1,Right,1,Right,433,52,59,None,None,y,1,1,experiment,rt,Other,Right,20,1,0
RT_6-1,Left,5,Left,498,-8,-4,Sound_1,Congruent,y,5,1,experiment,rt,Other,Right,20,1,0
RT_6-1,Right,3,Right,465,37,36,None,Congruent,y,3,1,experiment,rt,Other,Right,20,1,0
RT_6-1,Left,8,Left,465,-3,0,Sound_1,Congruent,y,8,1,experiment,rt,Other,Right,20,1,0
RT_6-1,Left,3,Left,498,54,52,Sound_1,Congruent,y,3,1,experiment,rt,Other,Right,20,1,0
RT_6-1,Left,5,Left,499,-49,-52,Sound_1,None,n,NA,1,experiment,rt,Other,Right,20,1,0
RT_6-1,Left,2,Left,699,0,0,None,Congruent,n,NA,1,experiment,rt,Other,Right,20,1,0
RT_6-1,Right,5,Right,500,56,57,Sound_1,Congruent,y,5,1,experiment,rt,Other,Right,20,1,0
RT_6-1,Right,6,Right,465,-51,-31,Sound_1,Congruent,y,6,1,experiment,rt,Other,Right,20,1,0
RT_6-1,Right,6,Right,499,51,54,None,Congruent,y,6,1,experiment,rt,Other,Right,20,1,0
RT_6-1,Right,6,Right,866,-4,-6,None,Incongruent,n,NA,1,experiment,rt,Other,Right,20,1,0
RT_6-1,Left,4,Left,498,-39,-40,Sound_1,Congruent,y,4,1,experiment,rt,Other,Right,20,1,0
RT_6-1,Left,5,Left,467,4,1,None,None,y,5,1,experiment,rt,Other,Right,20,1,0
RT_6-1,Left,2,Left,596,-46,-15,Sound_1,Incongruent,y,2,1,experiment,rt,Other,Right,20,1,0
RT_6-1,Right,8,Right,499,46,51,Sound_1,Congruent,y,8,1,experiment,rt,Other,Right,20,1,0
RT_6-1,Right,1,Right,366,-38,-33,None,Congruent,y,1,1,experiment,rt,Other,Right,20,1,0
RT_6-1,Left,3,Right,500,7,8,Sound_1,Incongruent,y,3,1,experiment,rt,Other,Right,20,0,1
RT_6-1,Right,5,Right,833,-42,-37,None,Incongruent,n,NA,1,experiment,rt,Other,Right,20,1,0
RT_6-1,Left,3,Left,499,38,36,None,None,y,3,1,experiment,rt,Other,Right,20,1,0
RT_6-1,Left,3,Left,566,-3,-2,Sound_1,None,n,NA,1,experiment,rt,Other,Right,20,1,0
RT_6-1,Left,2,Left,636,37,38,None,Incongruent,y,2,1,experiment,rt,Other,Right,20,1,0
RT_6-1,Left,1,Left,532,-47,-42,Sound_1,Congruent,y,1,1,experiment,rt,Other,Right,20,1,0
RT_6-1,Right,6,Right,538,40,38,Sound_1,None,y,6,1,experiment,rt,Other,Right,20,1,0
RT_6-1,Left,6,Left,732,-34,-33,None,None,n,NA,1,experiment,rt,Other,Right,20,1,0
RT_6-1,Right,8,Right,631,44,42,None,Congruent,n,NA,1,experiment,rt,Other,Right,20,1,0
RT_6-1,Right,3,Left,498,-35,-42,None,Incongruent,y,3,1,experiment,rt,Other,Right,20,0,1
RT_6-1,Left,7,Left,666,3,0,Sound_1,Congruent,n,NA,1,experiment,rt,Other,Right,20,1,0
RT_6-1,Left,5,Left,698,-43,-31,Sound_1,Incongruent,y,5,1,experiment,rt,Other,Right,20,1,0
RT_6-1,Left,3,Left,665,38,31,Sound_1,Incongruent,n,NA,1,experiment,rt,Other,Right,20,1,0
RT_6-1,Left,6,Left,736,-1,-1,None,Congruent,y,6,1,experiment,rt,Other,Right,20,1,0
RT_6-1,Right,7,Right,598,58,59,Sound_1,Incongruent,y,7,1,experiment,rt,Other,Right,20,1,0
RT_6-1,Left,4,Left,599,-34,-43,Sound_1,Incongruent,n,NA,1,experiment,rt,Other,Right,20,1,0
RT_6-1,Right,6,Right,565,5,3,Sound_1,Incongruent,y,6,1,experiment,rt,Other,Right,20,1,0
RT_6-1,Left,5,Left,732,-36,-36,None,Incongruent,n,NA,1,experiment,rt,Other,Right,20,1,0
RT_6-1,Left,3,Left,798,5,3,None,Incongruent,n,NA,1,experiment,rt,Other,Right,20,1,0
RT_6-1,Right,7,Right,533,47,51,Sound_1,Congruent,n,NA,1,experiment,rt,Other,Right,20,1,0
RT_6-1,Right,7,Right,733,-42,-37,None,None,n,NA,1,experiment,rt,Other,Right,20,1,0
RT_6-1,Right,3,Right,500,5,7,Sound_1,Congruent,n,NA,1,experiment,rt,Other,Right,20,1,0
RT_6-1,Left,1,Left,504,33,31,None,Congruent,y,1,1,experiment,rt,Other,Right,20,1,0
RT_6-1,Left,7,Left,465,1,0,Sound_1,None,y,7,1,experiment,rt,Other,Right,20,1,0
RT_6-1,Right,2,Right,500,-36,-30,None,None,y,2,1,experiment,rt,Other,Right,20,1,0
RT_6-1,Left,4,Left,933,0,-1,None,None,n,NA,1,experiment,rt,Other,Right,20,1,0
RT_6-1,Right,6,Right,568,30,23,None,None,n,NA,1,experiment,rt,Other,Right,20,1,0
RT_6-1,Left,1,Left,698,-37,-36,Sound_1,Incongruent,n,NA,1,experiment,rt,Other,Right,20,1,0
RT_6-1,Right,5,Right,532,45,43,Sound_1,None,n,NA,1,experiment,rt,Other,Right,20,1,0
RT_6-1,Left,6,Left,832,-2,-2,None,Incongruent,n,NA,1,experiment,rt,Other,Right,20,1,0
RT_6-1,Left,8,Left,466,-39,-38,Sound_1,None,n,NA,1,experiment,rt,Other,Right,20,1,0
RT_6-1,Left,1,Left,498,38,36,Sound_1,None,n,NA,1,experiment,rt,Other,Right,20,1,0
RT_6-1,Left,8,Left,465,-55,-56,None,Congruent,y,8,1,experiment,rt,Other,Right,20,1,0
RT_6-1,Left,2,Right,532,1,0,Sound_1,Incongruent,n,NA,1,experiment,rt,Other,Right,20,0,1
RT_6-1,Left,7,Left,633,52,56,None,Incongruent,n,NA,1,experiment,rt,Other,Right,20,1,0
RT_6-1,Left,3,Left,499,-45,-43,Sound_1,Congruent,n,NA,1,experiment,rt,Other,Right,20,1,0
RT_6-1,Right,8,Left,564,-1,-1,Sound_1,Incongruent,n,NA,1,experiment,rt,Other,Right,20,0,1
RT_6-1,Right,3,Right,531,-42,-40,Sound_1,Congruent,y,3,1,experiment,rt,Other,Right,20,1,0
RT_6-1,Left,4,Left,600,46,50,Sound_1,None,n,NA,1,experiment,rt,Other,Right,20,1,0
RT_6-1,Left,7,Left,632,-1,0,None,None,n,NA,1,experiment,rt,Other,Right,20,1,0
RT_6-1,Right,8,Right,499,-34,-33,Sound_1,Congruent,n,NA,1,experiment,rt,Other,Right,20,1,0
RT_6-1,Right,5,Right,464,7,2,Sound_1,None,y,5,1,experiment,rt,Other,Right,20,1,0
RT_6-1,Right,6,Right,566,-36,-36,None,Incongruent,y,6,1,experiment,rt,Other,Right,20,1,0
RT_6-1,Left,7,Left,499,48,57,Sound_1,None,n,NA,1,experiment,rt,Other,Right,20,1,0
RT_6-1,Right,5,Right,564,-42,-41,Sound_1,Incongruent,y,5,1,experiment,rt,Other,Right,20,1,0
RT_6-1,Right,2,Right,533,1,0,None,Congruent,y,2,1,experiment,rt,Other,Right,20,1,0
RT_6-1,Right,6,Right,666,59,13,Sound_1,Incongruent,n,NA,1,experiment,rt,Other,Right,20,1,0
RT_6-1,Right,1,Right,466,-1,-1,Sound_1,None,n,NA,1,experiment,rt,Other,Right,20,1,0
RT_6-1,Left,6,Left,433,-39,-40,None,Incongruent,y,6,1,experiment,rt,Other,Right,20,1,0
RT_6-1,Left,6,Left,665,58,59,Sound_1,Incongruent,n,NA,1,experiment,rt,Other,Right,20,1,0
RT_6-1,Right,4,Right,464,-1,-3,Sound_1,Congruent,y,4,1,experiment,rt,Other,Right,20,1,0
RT_6-1,Left,7,Left,500,50,48,None,Congruent,y,7,1,experiment,rt,Other,Right,20,1,0
RT_6-1,Left,7,Left,498,-39,-38,Sound_1,Congruent,y,7,1,experiment,rt,Other,Right,20,1,0
RT_6-1,Right,6,Right,566,7,1,Sound_1,Congruent,n,NA,1,experiment,rt,Other,Right,20,1,0
RT_6-1,Left,8,Left,699,46,48,None,None,n,NA,1,experiment,rt,Other,Right,20,1,0
RT_6-1,Right,3,Right,432,0,-1,None,None,y,3,1,experiment,rt,Other,Right,20,1,0
RT_6-1,Left,3,Left,665,-33,-36,None,None,n,NA,1,experiment,rt,Other,Right,20,1,0
RT_6-1,Right,4,Right,598,1,0,None,Incongruent,y,4,1,experiment,rt,Other,Right,20,1,0
RT_6-1,Right,8,Right,499,-32,-31,None,None,y,8,1,experiment,rt,Other,Right,20,1,0
RT_6-1,Right,4,Right,530,52,56,Sound_1,Congruent,n,NA,1,experiment,rt,Other,Right,20,1,0
RT_6-1,Right,1,Right,665,-34,-44,Sound_1,Incongruent,n,NA,1,experiment,rt,Other,Right,20,1,0
RT_6-1,Right,1,Right,632,4,0,None,Congruent,n,NA,1,experiment,rt,Other,Right,20,1,0
RT_6-1,Right,3,Right,399,40,41,Sound_1,None,y,3,1,experiment,rt,Other,Right,20,1,0
RT_6-1,Right,5,Right,532,-42,-37,Sound_1,Congruent,n,NA,1,experiment,rt,Other,Right,20,1,0
RT_6-1,Right,5,Right,632,36,36,None,Congruent,n,NA,1,experiment,rt,Other,Right,20,1,0
RT_6-1,Right,5,Right,599,-2,-4,None,None,n,NA,1,experiment,rt,Other,Right,20,1,0
RT_6-1,Left,1,Left,766,52,55,None,Incongruent,n,NA,1,experiment,rt,Other,Right,20,1,0
RT_6-1,Right,4,Right,597,-34,-29,None,Congruent,y,4,1,experiment,rt,Other,Right,20,1,0
RT_6-1,Left,5,Left,533,46,33,Sound_1,Congruent,n,NA,1,experiment,rt,Other,Right,20,1,0
RT_6-1,Right,8,Right,403,-2,-2,Sound_1,None,y,8,1,experiment,rt,Other,Right,20,1,0
RT_6-1,Right,2,Right,398,37,37,Sound_1,Congruent,y,2,1,experiment,rt,Other,Right,20,1,0
RT_6-1,Left,8,Left,930,-1,-3,Sound_1,Incongruent,n,NA,1,experiment,rt,Other,Right,20,1,0
RT_6-1,Right,6,Right,599,-36,-32,None,Congruent,n,NA,1,experiment,rt,Other,Right,20,1,0
RT_6-1,Right,6,Right,535,5,2,None,None,y,6,1,experiment,rt,Other,Right,20,1,0
RT_6-1,Right,1,Right,368,37,36,Sound_1,Incongruent,y,1,1,experiment,rt,Other,Right,20,1,0
RT_6-1,Left,8,Left,631,-1,0,None,Congruent,n,NA,1,experiment,rt,Other,Right,20,1,0
RT_6-1,Left,2,Left,735,37,37,None,None,n,NA,1,experiment,rt,Other,Right,20,1,0
RT_6-1,Left,1,Left,599,-1,0,None,Incongruent,y,1,1,experiment,rt,Other,Right,20,1,0
RT_6-1,Right,8,Right,765,-32,-31,None,Incongruent,n,NA,1,experiment,rt,Other,Right,20,1,0
RT_6-1,Right,7,Right,532,0,-1,Sound_1,Congruent,y,7,1,experiment,rt,Other,Right,20,1,0
RT_6-1,Left,5,Left,466,-35,-34,None,Congruent,y,5,1,experiment,rt,Other,Right,20,1,0
RT_6-1,Left,8,Left,567,0,1,None,None,y,8,1,experiment,rt,Other,Right,20,1,0
RT_6-1,Left,3,Right,332,-34,-33,Sound_1,None,y,3,1,experiment,rt,Other,Right,20,0,1
RT_6-1,Right,7,Right,666,-1,0,None,Incongruent,y,7,1,experiment,rt,Other,Right,20,1,0
RT_6-1,Left,8,Left,532,35,32,Sound_1,Congruent,n,NA,1,experiment,rt,Other,Right,20,1,0
RT_6-1,Right,8,Right,436,-7,-6,None,Congruent,y,8,1,experiment,rt,Other,Right,20,1,0
RT_6-1,Right,1,Right,532,34,36,Sound_1,Congruent,n,NA,1,experiment,rt,Other,Right,20,1,0
RT_6-1,Right,2,Right,831,0,3,Sound_1,None,y,2,1,experiment,rt,Other,Right,20,1,0
RT_6-1,Left,6,Left,467,30,31,None,None,y,6,1,experiment,rt,Other,Right,20,1,0
RT_6-1,Right,2,Right,466,-38,-39,Sound_1,Congruent,n,NA,1,experiment,rt,Other,Right,20,1,0
RT_6-1,Right,3,None,1001,4,6,None,Incongruent,n,NA,1,experiment,rt,Other,Right,20,0,1
RT_6-1,Left,4,Left,667,37,36,None,Incongruent,n,NA,1,experiment,rt,Other,Right,20,1,0
RT_5-1,Right,1,None,1001,-41,-42,None,Congruent,y,1,1,practice,rt,Female,Right,21,0,1
RT_5-1,Left,2,Left,867,58,21,Sound_1,None,y,2,1,practice,rt,Female,Right,21,1,0
RT_5-1,Left,2,Right,499,-47,-45,Sound_1,None,n,NA,1,practice,rt,Female,Right,21,0,1
RT_5-1,Left,8,None,1001,6,6,Sound_1,Incongruent,n,NA,1,practice,rt,Female,Right,21,0,1
RT_5-1,Right,5,Right,999,54,52,None,Congruent,n,NA,1,practice,rt,Female,Right,21,1,0
RT_5-1,Right,5,None,1001,-47,-46,None,Incongruent,n,NA,1,practice,rt,Female,Right,21,0,1
RT_5-1,Left,4,Left,833,8,0,None,None,n,NA,1,practice,rt,Female,Right,21,1,0
RT_5-1,Right,2,None,1001,47,45,None,Incongruent,y,2,1,practice,rt,Female,Right,21,0,1
RT_5-1,Right,8,Left,298,1,0,Sound_1,None,y,8,1,practice,rt,Female,Right,21,0,1
RT_5-1,Right,4,None,1001,39,37,None,Incongruent,n,NA,1,practice,rt,Female,Right,21,0,1
RT_5-1,Left,7,Left,632,5,3,Sound_1,Congruent,n,NA,1,practice,rt,Female,Right,21,1,0
RT_5-1,Left,3,Left,832,-36,-33,None,None,n,NA,1,practice,rt,Female,Right,21,1,0
RT_5-1,Left,5,Left,800,48,47,None,None,n,NA,1,practice,rt,Female,Right,21,1,0
RT_5-1,Right,1,Right,699,-11,-5,None,Congruent,n,NA,1,practice,rt,Female,Right,21,1,0
RT_5-1,Left,5,Left,637,50,45,Sound_1,Congruent,n,NA,1,practice,rt,Female,Right,21,1,0
RT_5-1,Right,3,Right,632,-7,-6,None,None,y,3,1,practice,rt,Female,Right,21,1,0
RT_5-1,Left,5,Left,498,44,31,Sound_1,None,y,5,1,practice,rt,Female,Right,21,1,0
RT_5-1,Right,3,Right,464,-34,-30,Sound_1,None,n,NA,1,practice,rt,Female,Right,21,1,0
RT_5-1,Right,8,Right,865,55,51,None,Congruent,n,NA,1,practice,rt,Female,Right,21,1,0
RT_5-1,Right,7,Right,833,-1,2,None,Congruent,n,NA,1,practice,rt,Female,Right,21,1,0
RT_5-1,Left,4,Left,666,-51,-49,Sound_1,Incongruent,n,NA,1,practice,rt,Female,Right,21,1,0
RT_5-1,Left,6,Left,831,43,54,Sound_1,Congruent,y,6,1,practice,rt,Female,Right,21,1,0
RT_5-1,Left,7,None,1001,-35,-33,None,Congruent,n,NA,1,practice,rt,Female,Right,21,0,1
RT_5-1,Left,8,Left,768,54,53,None,None,n,NA,1,practice,rt,Female,Right,21,1,0
RT_5-1,Right,1,Right,932,0,3,None,Congruent,n,NA,1,experiment,rt,Female,Right,21,1,0
RT_5-1,Left,8,Left,332,45,42,None,Incongruent,y,8,1,experiment,rt,Female,Right,21,1,0
RT_5-1,Left,8,Left,664,-2,-5,None,None,y,8,1,experiment,rt,Female,Right,21,1,0
RT_5-1,Right,1,Right,666,-43,-49,None,Congruent,y,1,1,experiment,rt,Female,Right,21,1,0
RT_5-1,Left,3,Left,565,0,1,Sound_1,None,n,NA,1,experiment,rt,Female,Right,21,1,0
RT_5-1,Left,4,Left,764,34,30,Sound_1,Incongruent,y,4,1,experiment,rt,Female,Right,21,1,0
RT_5-1,Right,3,Right,632,-31,-31,None,Incongruent,y,3,1,experiment,rt,Female,Right,21,1,0
RT_5-1,Right,7,Right,633,1,0,Sound_1,None,n,NA,1,experiment,rt,Female,Right,21,1,0
RT_5-1,Left,6,Left,430,35,34,None,None,y,6,1,experiment,rt,Female,Right,21,1,0
RT_5-1,Left,4,Left,931,-41,-40,Sound_1,Incongruent,n,NA,1,experiment,rt,Female,Right,21,1,0
RT_5-1,Left,7,Left,666,3,1,Sound_1,Congruent,n,NA,1,experiment,rt,Female,Right,21,1,0
RT_5-1,Right,8,Right,832,-37,-49,None,Incongruent,n,NA,1,experiment,rt,Female,Right,21,1,0
RT_5-1,Left,5,Left,697,38,36,None,None,n,NA,1,experiment,rt,Female,Right,21,1,0
RT_5-1,Left,2,Left,497,-2,-2,Sound_1,Congruent,y,2,1,experiment,rt,Female,Right,21,1,0
RT_5-1,Left,8,Left,833,-31,-32,None,Incongruent,n,NA,1,experiment,rt,Female,Right,21,1,0
RT_5-1,Right,8,Right,602,44,41,Sound_1,None,n,NA,1,experiment,rt,Female,Right,21,1,0
RT_5-1,Left,3,Left,632,-1,-3,Sound_1,Incongruent,y,3,1,experiment,rt,Female,Right,21,1,0
RT_5-1,Right,6,Right,831,-31,-28,None,Incongruent,y,6,1,experiment,rt,Female,Right,21,1,0
RT_5-1,Left,3,Left,799,40,43,Sound_1,Incongruent,n,NA,1,experiment,rt,Female,Right,21,1,0
RT_5-1,Right,5,Right,897,-52,-33,Sound_1,Incongruent,y,5,1,experiment,rt,Female,Right,21,1,0
RT_5-1,Right,5,Right,866,57,55,None,Incongruent,y,5,1,experiment,rt,Female,Right,21,1,0
RT_5-1,Left,2,Left,799,-44,-41,None,Congruent,y,2,1,experiment,rt,Female,Right,21,1,0
RT_5-1,Left,7,Left,597,-5,-5,Sound_1,None,y,7,1,experiment,rt,Female,Right,21,1,0
RT_5-1,Left,2,Left,999,-50,-51,None,Incongruent,n,NA,1,experiment,rt,Female,Right,21,1,0
RT_5-1,Left,5,Left,603,43,43,None,Incongruent,y,5,1,experiment,rt,Female,Right,21,1,0
RT_5-1,Right,2,Right,665,0,1,Sound_1,Incongruent,n,NA,1,experiment,rt,Female,Right,21,1,0
RT_5-1,Right,4,Right,966,-47,-42,None,None,n,NA,1,experiment,rt,Female,Right,21,1,0
RT_5-1,Left,1,Left,632,1,1,Sound_1,Congruent,n,NA,1,experiment,rt,Female,Right,21,1,0
RT_5-1,Right,5,Right,898,50,37,Sound_1,None,n,NA,1,experiment,rt,Female,Right,21,1,0
RT_5-1,Right,3,Right,535,1,2,Sound_1,Congruent,n,NA,1,experiment,rt,Female,Right,21,1,0
RT_5-1,Right,7,Right,567,41,39,Sound_1,Congruent,n,NA,1,experiment,rt,Female,Right,21,1,0
RT_5-1,Left,3,Left,832,-42,-38,None,None,n,NA,1,experiment,rt,Female,Right,21,1,0
RT_5-1,Right,5,Right,698,9,10,Sound_1,Incongruent,n,NA,1,experiment,rt,Female,Right,21,1,0
RT_5-1,Left,8,Left,666,-36,-40,Sound_1,None,n,NA,1,experiment,rt,Female,Right,21,1,0
RT_5-1,Left,3,Left,498,5,1,None,Congruent,y,3,1,experiment,rt,Female,Right,21,1,0
RT_5-1,Right,7,Right,533,-40,-39,None,Congruent,y,7,1,experiment,rt,Female,Right,21,1,0
RT_5-1,Left,8,Left,632,4,0,Sound_1,Incongruent,n,NA,1,experiment,rt,Female,Right,21,1,0
RT_5-1,Left,6,Left,665,-45,-42,None,None,n,NA,1,experiment,rt,Female,Right,21,1,0
RT_5-1,Right,8,Right,468,39,40,Sound_1,Congruent,y,8,1,experiment,rt,Female,Right,21,1,0
RT_5-1,Left,6,Left,569,-8,-7,None,Congruent,y,6,1,experiment,rt,Female,Right,21,1,0
RT_5-1,Left,1,None,1001,47,36,None,Incongruent,n,NA,1,experiment,rt,Female,Right,21,0,1
RT_5-1,Right,8,Right,529,-5,-2,Sound_1,None,y,8,1,experiment,rt,Female,Right,21,1,0
RT_5-1,Right,1,Right,798,47,54,None,Incongruent,n,NA,1,experiment,rt,Female,Right,21,1,0
RT_5-1,Left,4,Left,832,-35,-40,None,Congruent,n,NA,1,experiment,rt,Female,Right,21,1,0
RT_5-1,Left,3,Left,797,51,45,Sound_1,Congruent,y,3,1,experiment,rt,Female,Right,21,1,0
RT_5-1,Right,4,Right,565,-1,-3,Sound_1,None,n,NA,1,experiment,rt,Female,Right,21,1,0
RT_5-1,Right,1,Right,666,54,47,Sound_1,Congruent,n,NA,1,experiment,rt,Female,Right,21,1,0
RT_5-1,Left,5,Left,499,-38,-36,Sound_1,None,n,NA,1,experiment,rt,Female,Right,21,1,0
RT_5-1,Left,2,Left,464,48,48,Sound_1,None,y,2,1,experiment,rt,Female,Right,21,1,0
RT_5-1,Left,5,Left,832,-7,-8,Sound_1,Incongruent,n,NA,1,experiment,rt,Female,Right,21,1,0
RT_5-1,Left,3,Left,531,-47,-43,Sound_1,None,y,3,1,experiment,rt,Female,Right,21,1,0
RT_5-1,Right,3,Right,465,0,0,None,None,y,3,1,experiment,rt,Female,Right,21,1,0
RT_5-1,Left,5,Left,666,43,39,Sound_1,Congruent,n,NA,1,experiment,rt,Female,Right,21,1,0
RT_5-1,Right,5,Right,999,-51,-49,None,Incongruent,n,NA,1,experiment,rt,Female,Right,21,1,0
RT_5-1,Right,6,Right,565,3,3,None,None,y,6,1,experiment,rt,Female,Right,21,1,0
RT_5-1,Right,6,Right,564,-53,-50,Sound_1,Congruent,y,6,1,experiment,rt,Female,Right,21,1,0
RT_5-1,Left,2,Left,572,4,-6,None,None,y,2,1,experiment,rt,Female,Right,21,1,0
RT_5-1,Right,7,Right,563,-50,-46,Sound_1,None,y,7,1,experiment,rt,Female,Right,21,1,0
RT_5-1,Left,6,Left,533,38,44,Sound_1,Incongruent,n,NA,1,experiment,rt,Female,Right,21,1,0
RT_5-1,Right,4,Right,633,-43,-46,Sound_1,None,y,4,1,experiment,rt,Female,Right,21,1,0
RT_5-1,Left,6,Left,465,52,49,Sound_1,Congruent,y,6,1,experiment,rt,Female,Right,21,1,0
RT_5-1,Right,7,Right,699,2,1,None,Congruent,n,NA,1,experiment,rt,Female,Right,21,1,0
RT_5-1,Right,3,Right,733,47,37,Sound_1,Incongruent,n,NA,1,experiment,rt,Female,Right,21,1,0
RT_5-1,Left,1,Left,531,-49,-50,Sound_1,Congruent,y,1,1,experiment,rt,Female,Right,21,1,0
RT_5-1,Left,8,Left,699,2,6,None,Congruent,n,NA,1,experiment,rt,Female,Right,21,1,0
RT_5-1,Left,1,Left,733,-44,-45,None,Congruent,n,NA,1,experiment,rt,Female,Right,21,1,0
RT_5-1,Right,2,Right,633,37,40,Sound_1,None,n,NA,1,experiment,rt,Female,Right,21,1,0
RT_5-1,Right,1,Right,498,-5,-3,Sound_1,Congruent,y,1,1,experiment,rt,Female,Right,21,1,0
RT_5-1,Left,7,Left,799,47,44,None,Incongruent,n,NA,1,experiment,rt,Female,Right,21,1,0
RT_5-1,Right,3,Right,700,-35,-33,None,Congruent,n,NA,1,experiment,rt,Female,Right,21,1,0
RT_5-1,Right,4,Right,598,4,3,None,Incongruent,y,4,1,experiment,rt,Female,Right,21,1,0
RT_5-1,Right,6,Right,600,-50,-47,Sound_1,None,n,NA,1,experiment,rt,Female,Right,21,1,0
RT_5-1,Left,7,Left,634,50,46,Sound_1,Incongruent,y,7,1,experiment,rt,Female,Right,21,1,0
RT_5-1,Left,6,Left,934,-7,-10,None,Incongruent,n,NA,1,experiment,rt,Female,Right,21,1,0
RT_5-1,Right,7,Right,733,-56,-54,None,None,n,NA,1,experiment,rt,Female,Right,21,1,0
RT_5-1,Right,6,Right,566,3,2,Sound_1,Congruent,n,NA,1,experiment,rt,Female,Right,21,1,0
RT_5-1,Right,4,Right,665,49,50,Sound_1,Incongruent,y,4,1,experiment,rt,Female,Right,21,1,0
RT_5-1,Left,8,Left,631,-5,-10,Sound_1,Congruent,y,8,1,experiment,rt,Female,Right,21,1,0
RT_5-1,Right,1,Right,667,37,37,Sound_1,Incongruent,y,1,1,experiment,rt,Female,Right,21,1,0
RT_5-1,Right,4,Right,566,-34,-34,None,Congruent,y,4,1,experiment,rt,Female,Right,21,1,0
RT_5-1,Right,8,Right,699,43,44,None,Congruent,n,NA,1,experiment,rt,Female,Right,21,1,0
RT_5-1,Left,1,Left,564,0,-8,Sound_1,None,y,1,1,experiment,rt,Female,Right,21,1,0
RT_5-1,Left,6,Left,665,-48,-49,Sound_1,Congruent,n,NA,1,experiment,rt,Female,Right,21,1,0
RT_5-1,Right,7,Right,566,51,56,None,None,y,7,1,experiment,rt,Female,Right,21,1,0
RT_5-1,Right,1,Right,666,-5,1,None,Incongruent,y,1,1,experiment,rt,Female,Right,21,1,0
RT_5-1,Left,3,Left,567,-57,-57,Sound_1,Congruent,n,NA,1,experiment,rt,Female,Right,21,1,0
RT_5-1,Right,4,Right,535,5,5,Sound_1,Congruent,y,4,1,experiment,rt,Female,Right,21,1,0
RT_5-1,Right,8,Right,798,58,53,None,Incongruent,y,8,1,experiment,rt,Female,Right,21,1,0
RT_5-1,Right,2,Right,465,2,2,Sound_1,None,y,2,1,experiment,rt,Female,Right,21,1,0
RT_5-1,Left,8,Left,998,37,29,None,None,n,NA,1,experiment,rt,Female,Right,21,1,0
RT_5-1,Right,8,Right,701,-2,-6,None,None,n,NA,1,experiment,rt,Female,Right,21,1,0
RT_5-1,Left,1,Left,665,49,46,Sound_1,None,n,NA,1,experiment,rt,Female,Right,21,1,0
RT_5-1,Right,8,Right,565,-42,-37,Sound_1,Congruent,n,NA,1,experiment,rt,Female,Right,21,1,0
RT_5-1,Right,3,Right,499,56,56,None,Congruent,y,3,1,experiment,rt,Female,Right,21,1,0
RT_5-1,Right,6,Right,738,-44,-44,None,Congruent,n,NA,1,experiment,rt,Female,Right,21,1,0
RT_5-1,Right,2,Right,666,53,54,None,Congruent,n,NA,1,experiment,rt,Female,Right,21,1,0
RT_5-1,Left,4,Left,563,-48,-44,Sound_1,Congruent,y,4,1,experiment,rt,Female,Right,21,1,0
RT_5-1,Left,7,Left,765,1,0,None,Incongruent,y,7,1,experiment,rt,Female,Right,21,1,0
RT_5-1,Left,8,Left,671,-51,-50,None,Congruent,y,8,1,experiment,rt,Female,Right,21,1,0
RT_5-1,Left,5,Left,700,7,2,None,Congruent,n,NA,1,experiment,rt,Female,Right,21,1,0
RT_5-1,Right,2,Right,664,-49,-46,Sound_1,Incongruent,y,2,1,experiment,rt,Female,Right,21,1,0
RT_5-1,Right,3,Right,466,0,0,Sound_1,Incongruent,y,3,1,experiment,rt,Female,Right,21,1,0
RT_5-1,Right,2,Right,467,43,44,None,Incongruent,y,2,1,experiment,rt,Female,Right,21,1,0
RT_5-1,Right,1,Right,566,-52,-52,Sound_1,Incongruent,n,NA,1,experiment,rt,Female,Right,21,1,0
RT_5-1,Right,4,Right,633,38,36,Sound_1,Congruent,n,NA,1,experiment,rt,Female,Right,21,1,0
RT_5-1,Left,5,Left,801,-55,-52,None,Incongruent,n,NA,1,experiment,rt,Female,Right,21,1,0
RT_5-1,Left,4,Left,598,-2,-2,Sound_1,None,y,4,1,experiment,rt,Female,Right,21,1,0
RT_5-1,Right,4,Right,665,-51,-51,Sound_1,Incongruent,n,NA,1,experiment,rt,Female,Right,21,1,0
RT_5-1,Right,6,Right,564,50,51,Sound_1,None,y,6,1,experiment,rt,Female,Right,21,1,0
RT_5-1,Left,5,Left,864,-51,-52,Sound_1,Incongruent,y,5,1,experiment,rt,Female,Right,21,1,0
RT_5-1,Right,6,Right,699,38,38,None,Congruent,y,6,1,experiment,rt,Female,Right,21,1,0
RT_5-1,Right,1,Right,732,-42,-46,None,None,n,NA,1,experiment,rt,Female,Right,21,1,0
RT_5-1,Left,5,Left,664,1,0,Sound_1,Congruent,y,5,1,experiment,rt,Female,Right,21,1,0
RT_5-1,Left,7,Left,866,-42,-44,None,Congruent,n,NA,1,experiment,rt,Female,Right,21,1,0
RT_5-1,Left,5,Left,499,-1,-2,None,None,y,5,1,experiment,rt,Female,Right,21,1,0
RT_5-1,Right,6,Right,733,46,48,None,None,n,NA,1,experiment,rt,Female,Right,21,1,0
RT_5-1,Left,6,Left,531,-53,-55,Sound_1,None,y,6,1,experiment,rt,Female,Right,21,1,0
RT_5-1,Right,3,Right,732,1,2,None,Incongruent,n,NA,1,experiment,rt,Female,Right,21,1,0
RT_5-1,Left,8,Left,565,46,46,Sound_1,None,y,8,1,experiment,rt,Female,Right,21,1,0
RT_5-1,Left,6,Left,532,0,0,Sound_1,None,n,NA,1,experiment,rt,Female,Right,21,1,0
RT_5-1,Left,7,Left,564,-50,-44,Sound_1,Congruent,y,7,1,experiment,rt,Female,Right,21,1,0
RT_5-1,Right,8,Right,599,0,0,None,Congruent,y,8,1,experiment,rt,Female,Right,21,1,0
RT_5-1,Left,4,Left,599,53,50,None,Congruent,y,4,1,experiment,rt,Female,Right,21,1,0
RT_5-1,Left,4,Left,832,-4,-5,None,Incongruent,y,4,1,experiment,rt,Female,Right,21,1,0
RT_5-1,Left,5,Left,498,33,26,Sound_1,None,y,5,1,experiment,rt,Female,Right,21,1,0
RT_5-1,Left,6,Left,564,-1,-4,Sound_1,Incongruent,y,6,1,experiment,rt,Female,Right,21,1,0
RT_5-1,Right,5,Right,699,47,47,None,Congruent,n,NA,1,experiment,rt,Female,Right,21,1,0
RT_5-1,Right,5,Right,666,-3,0,None,Congruent,y,5,1,experiment,rt,Female,Right,21,1,0
RT_5-1,Right,4,Right,732,51,55,None,Incongruent,n,NA,1,experiment,rt,Female,Right,21,1,0
RT_5-1,Right,3,Right,631,-37,-36,Sound_1,Congruent,y,3,1,experiment,rt,Female,Right,21,1,0
RT_5-1,Left,1,Left,697,30,15,Sound_1,Incongruent,y,1,1,experiment,rt,Female,Right,21,1,0
RT_5-1,Right,7,Right,700,-48,-46,Sound_1,Incongruent,n,NA,1,experiment,rt,Female,Right,21,1,0
RT_5-1,Right,2,Right,499,4,5,None,Congruent,y,2,1,experiment,rt,Female,Right,21,1,0
RT_5-1,Left,3,Left,699,47,45,None,None,y,3,1,experiment,rt,Female,Right,21,1,0
RT_5-1,Right,5,Right,665,-10,-9,Sound_1,None,y,5,1,experiment,rt,Female,Right,21,1,0
RT_5-1,Left,2,Left,665,39,37,Sound_1,Congruent,n,NA,1,experiment,rt,Female,Right,21,1,0
RT_5-1,Left,2,Left,531,-50,-50,Sound_1,Incongruent,y,2,1,experiment,rt,Female,Right,21,1,0
RT_5-1,Right,4,Right,533,32,32,None,None,y,4,1,experiment,rt,Female,Right,21,1,0
RT_5-1,Left,1,Left,666,-5,-6,None,Incongruent,y,1,1,experiment,rt,Female,Right,21,1,0
RT_5-1,Left,2,Left,965,49,47,None,Incongruent,y,2,1,experiment,rt,Female,Right,21,1,0
RT_5-1,Left,2,Left,998,-2,-8,Sound_1,Incongruent,n,NA,1,experiment,rt,Female,Right,21,1,0
RT_5-1,Left,1,Left,699,43,42,None,Congruent,y,1,1,experiment,rt,Female,Right,21,1,0
RT_5-1,Right,6,Right,900,-3,0,None,Incongruent,n,NA,1,experiment,rt,Female,Right,21,1,0
RT_5-1,Right,3,Left,566,-47,-45,Sound_1,None,n,NA,1,experiment,rt,Female,Right,21,0,1
RT_5-1,Left,7,Left,666,45,48,Sound_1,None,n,NA,1,experiment,rt,Female,Right,21,1,0
RT_5-1,Left,7,None,1001,-32,-31,Sound_1,Incongruent,n,NA,1,experiment,rt,Female,Right,21,0,1
RT_5-1,Right,3,Right,666,37,39,None,None,n,NA,1,experiment,rt,Female,Right,21,1,0
RT_5-1,Left,2,Left,600,-49,-46,Sound_1,None,n,NA,1,experiment,rt,Female,Right,21,1,0
RT_5-1,Left,8,Left,532,44,51,Sound_1,Congruent,n,NA,1,experiment,rt,Female,Right,21,1,0
RT_5-1,Right,5,Right,600,-44,-42,Sound_1,Congruent,n,NA,1,experiment,rt,Female,Right,21,1,0
RT_5-1,Right,1,Right,665,1,0,Sound_1,None,n,NA,1,experiment,rt,Female,Right,21,1,0
RT_5-1,Left,2,Left,899,36,30,None,None,n,NA,1,experiment,rt,Female,Right,21,1,0
RT_5-1,Left,7,Left,632,-5,-9,None,None,n,NA,1,experiment,rt,Female,Right,21,1,0
RT_5-1,Right,5,Right,566,-47,-44,None,None,y,5,1,experiment,rt,Female,Right,21,1,0
RT_5-1,Left,2,Left,700,-2,-11,None,Congruent,n,NA,1,experiment,rt,Female,Right,21,1,0
RT_5-1,Left,7,Left,599,49,38,None,Congruent,y,7,1,experiment,rt,Female,Right,21,1,0
RT_5-1,Left,8,Left,731,-35,-33,Sound_1,Incongruent,y,8,1,experiment,rt,Female,Right,21,1,0
RT_5-1,Left,3,Left,733,49,48,None,Congruent,n,NA,1,experiment,rt,Female,Right,21,1,0
RT_5-1,Left,4,Left,665,-2,-4,Sound_1,Congruent,n,NA,1,experiment,rt,Female,Right,21,1,0
RT_5-1,Right,2,Right,532,-55,-51,None,None,y,2,1,experiment,rt,Female,Right,21,1,0
RT_5-1,Right,1,Right,498,39,35,None,None,y,1,1,experiment,rt,Female,Right,21,1,0
RT_5-1,Right,2,Right,532,-43,-45,Sound_1,Congruent,n,NA,1,experiment,rt,Female,Right,21,1,0
RT_5-1,Right,8,Right,666,0,-3,Sound_1,Incongruent,n,NA,1,experiment,rt,Female,Right,21,1,0
RT_5-1,Right,6,Right,598,39,32,Sound_1,Incongruent,n,NA,1,experiment,rt,Female,Right,21,1,0
RT_5-1,Left,3,Left,666,-42,-43,None,Incongruent,y,3,1,experiment,rt,Female,Right,21,1,0
RT_5-1,Right,5,Right,733,-1,-1,None,None,n,NA,1,experiment,rt,Female,Right,21,1,0
RT_5-1,Right,2,Right,497,39,37,Sound_1,Congruent,y,2,1,experiment,rt,Female,Right,21,1,0
RT_5-1,Right,8,Right,732,-39,-23,Sound_1,Incongruent,y,8,1,experiment,rt,Female,Right,21,1,0
RT_5-1,Left,4,Left,765,2,6,None,None,n,NA,1,experiment,rt,Female,Right,21,1,0
RT_5-1,Right,7,Right,599,51,51,Sound_1,Incongruent,y,7,1,experiment,rt,Female,Right,21,1,0
RT_5-1,Left,3,Left,799,0,-3,None,Incongruent,n,NA,1,experiment,rt,Female,Right,21,1,0
RT_5-1,Right,7,Right,800,40,41,None,Incongruent,n,NA,1,experiment,rt,Female,Right,21,1,0
RT_5-1,Right,7,Right,598,0,-3,Sound_1,Congruent,y,7,1,experiment,rt,Female,Right,21,1,0
RT_5-1,Right,2,None,1001,-39,-36,None,Incongruent,n,NA,1,experiment,rt,Female,Right,21,0,1
RT_5-1,Right,5,Right,564,50,43,Sound_1,Congruent,y,5,1,experiment,rt,Female,Right,21,1,0
RT_5-1,Left,6,Left,468,-57,-47,None,Incongruent,y,6,1,experiment,rt,Female,Right,21,1,0
RT_5-1,Left,4,Left,633,37,38,Sound_1,None,n,NA,1,experiment,rt,Female,Right,21,1,0
RT_5-1,Right,4,Right,699,7,5,None,Congruent,n,NA,1,experiment,rt,Female,Right,21,1,0
RT_5-1,Left,7,Left,500,-38,-34,None,None,y,7,1,experiment,rt,Female,Right,21,1,0
RT_5-1,Left,1,Left,766,1,2,None,None,n,NA,1,experiment,rt,Female,Right,21,1,0
RT_5-1,Left,1,Left,897,-41,-35,None,None,y,1,1,experiment,rt,Female,Right,21,1,0
RT_5-1,Right,2,Right,732,6,7,None,None,n,NA,1,experiment,rt,Female,Right,21,1,0
RT_5-1,Right,8,Right,998,-33,-31,None,None,y,8,1,experiment,rt,Female,Right,21,1,0
RT_5-1,Right,6,Right,731,5,6,Sound_1,Incongruent,y,6,1,experiment,rt,Female,Right,21,1,0
RT_5-1,Right,1,Right,698,-42,-33,Sound_1,None,y,1,1,experiment,rt,Female,Right,21,1,0
RT_5-1,Left,6,Left,833,34,32,None,Congruent,n,NA,1,experiment,rt,Female,Right,21,1,0
RT_5-1,Left,1,Left,899,-48,-41,Sound_1,Incongruent,n,NA,1,experiment,rt,Female,Right,21,1,0
RT_5-1,Right,7,Right,699,5,3,None,Incongruent,y,7,1,experiment,rt,Female,Right,21,1,0
RT_5-1,Left,4,Left,766,-43,-49,None,None,y,4,1,experiment,rt,Female,Right,21,1,0
RT_5-1,Right,3,Right,432,42,42,Sound_1,None,y,3,1,experiment,rt,Female,Right,21,1,0
RT_5-1,Left,5,Left,565,-52,-48,None,Congruent,y,5,1,experiment,rt,Female,Right,21,1,0
RT_5-1,Left,4,None,1001,55,53,None,Incongruent,n,NA,1,experiment,rt,Female,Right,21,0,1
RT_4-1,Right,5,None,1001,35,30,None,Congruent,n,NA,1,practice,rt,Male,Left,21,0,1
RT_4-1,Right,1,Right,599,8,8,None,Congruent,n,NA,1,practice,rt,Male,Left,21,1,0
RT_4-1,Left,3,Right,666,-35,-33,None,None,n,NA,1,practice,rt,Male,Left,21,0,1
RT_4-1,Left,5,Left,631,37,30,Sound_1,None,y,5,1,practice,rt,Male,Left,21,1,0
RT_4-1,Right,1,Right,466,-51,-35,None,Congruent,y,1,1,practice,rt,Male,Left,21,1,0
RT_4-1,Left,7,Left,532,0,0,Sound_1,Congruent,n,NA,1,practice,rt,Male,Left,21,1,0
RT_4-1,Left,5,Left,500,43,45,Sound_1,Congruent,n,NA,1,practice,rt,Male,Left,21,1,0
RT_4-1,Left,7,Left,633,-50,-48,None,Congruent,n,NA,1,practice,rt,Male,Left,21,1,0
RT_4-1,Left,4,Left,633,0,-3,None,None,n,NA,1,practice,rt,Male,Left,21,1,0
RT_4-1,Right,8,Right,532,41,44,None,Congruent,n,NA,1,practice,rt,Male,Left,21,1,0
RT_4-1,Right,7,Right,532,1,5,None,Congruent,n,NA,1,practice,rt,Male,Left,21,1,0
RT_4-1,Left,8,Left,633,55,49,None,None,n,NA,1,practice,rt,Male,Left,21,1,0
RT_4-1,Right,3,Right,566,1,5,None,None,y,3,1,practice,rt,Male,Left,21,1,0
RT_4-1,Right,3,Right,499,-55,-51,Sound_1,None,n,NA,1,practice,rt,Male,Left,21,1,0
RT_4-1,Right,2,Left,465,52,52,None,Incongruent,y,2,1,practice,rt,Male,Left,21,0,1
RT_4-1,Left,8,Left,698,0,4,Sound_1,Incongruent,n,NA,1,practice,rt,Male,Left,21,1,0
RT_4-1,Left,6,Left,464,47,47,Sound_1,Congruent,y,6,1,practice,rt,Male,Left,21,1,0
RT_4-1,Right,5,Right,765,-43,-28,None,Incongruent,n,NA,1,practice,rt,Male,Left,21,1,0
RT_4-1,Left,5,Left,599,37,33,None,None,n,NA,1,practice,rt,Male,Left,21,1,0
RT_4-1,Left,2,Left,632,-45,-34,Sound_1,None,n,NA,1,practice,rt,Male,Left,21,1,0
RT_4-1,Right,4,Right,699,41,33,None,Incongruent,n,NA,1,practice,rt,Male,Left,21,1,0
RT_4-1,Left,4,Left,565,-44,-47,Sound_1,Incongruent,n,NA,1,practice,rt,Male,Left,21,1,0
RT_4-1,Left,2,Left,599,39,45,Sound_1,None,y,2,1,practice,rt,Male,Left,21,1,0
RT_4-1,Right,8,Right,464,1,4,Sound_1,None,y,8,1,practice,rt,Male,Left,21,1,0
RT_4-1,Left,7,Left,565,46,47,None,Congruent,y,7,1,experiment,rt,Male,Left,21,1,0
RT_4-1,Left,5,Left,466,-1,0,Sound_1,Incongruent,n,NA,1,experiment,rt,Male,Left,21,1,0
RT_4-1,Right,2,Right,465,42,45,Sound_1,Congruent,y,2,1,experiment,rt,Male,Left,21,1,0
RT_4-1,Right,2,Left,533,2,0,None,None,n,NA,1,experiment,rt,Male,Left,21,0,1
RT_4-1,Left,2,Left,599,58,51,Sound_1,Congruent,n,NA,1,experiment,rt,Male,Left,21,1,0
RT_4-1,Right,1,Right,532,-48,-45,None,None,n,NA,1,experiment,rt,Male,Left,21,1,0
RT_4-1,Right,3,Right,565,38,41,None,None,n,NA,1,experiment,rt,Male,Left,21,1,0
RT_4-1,Left,4,Left,599,4,9,None,None,n,NA,1,experiment,rt,Male,Left,21,1,0
RT_4-1,Right,7,Left,397,42,43,None,None,y,7,1,experiment,rt,Male,Left,21,0,1
RT_4-1,Right,8,Right,565,-44,-39,None,Incongruent,n,NA,1,experiment,rt,Male,Left,21,1,0
RT_4-1,Right,7,Right,564,42,42,Sound_1,Incongruent,y,7,1,experiment,rt,Male,Left,21,1,0
RT_4-1,Left,2,Left,569,-38,-38,Sound_1,None,n,NA,1,experiment,rt,Male,Left,21,1,0
RT_4-1,Right,2,Right,499,38,39,Sound_1,None,n,NA,1,experiment,rt,Male,Left,21,1,0
RT_4-1,Right,5,Right,632,3,7,None,Congruent,y,5,1,experiment,rt,Male,Left,21,1,0
RT_4-1,Left,2,Left,502,42,38,Sound_1,None,y,2,1,experiment,rt,Male,Left,21,1,0
RT_4-1,Right,6,Right,505,4,2,None,None,y,6,1,experiment,rt,Male,Left,21,1,0
RT_4-1,Right,7,Right,530,-49,-49,None,Congruent,y,7,1,experiment,rt,Male,Left,21,1,0
RT_4-1,Right,5,Right,566,0,5,None,None,n,NA,1,experiment,rt,Male,Left,21,1,0
RT_4-1,Left,5,Left,531,-40,-38,Sound_1,Incongruent,y,5,1,experiment,rt,Male,Left,21,1,0
RT_4-1,Left,8,Left,834,34,14,None,None,n,NA,1,experiment,rt,Male,Left,21,1,0
RT_4-1,Left,4,Left,634,-31,-19,Sound_1,Congruent,y,4,1,experiment,rt,Male,Left,21,1,0
RT_4-1,Right,3,Right,465,-1,0,None,None,y,3,1,experiment,rt,Male,Left,21,1,0
RT_4-1,Left,5,Left,498,-53,-53,Sound_1,None,n,NA,1,experiment,rt,Male,Left,21,1,0
RT_4-1,Right,8,Right,465,-3,-3,None,Congruent,y,8,1,experiment,rt,Male,Left,21,1,0
RT_4-1,Left,6,Left,565,-33,-23,Sound_1,Congruent,n,NA,1,experiment,rt,Male,Left,21,1,0
RT_4-1,Right,6,Right,630,-2,-2,None,Incongruent,n,NA,1,experiment,rt,Male,Left,21,1,0
RT_4-1,Left,8,Left,565,-35,-21,Sound_1,None,n,NA,1,experiment,rt,Male,Left,21,1,0
RT_4-1,Left,2,Left,501,-4,-4,None,None,y,2,1,experiment,rt,Male,Left,21,1,0
RT_4-1,Left,6,Left,532,-37,-37,None,Incongruent,y,6,1,experiment,rt,Male,Left,21,1,0
RT_4-1,Right,6,Right,568,35,32,Sound_1,None,y,6,1,experiment,rt,Male,Left,21,1,0
RT_4-1,Left,1,Left,531,0,5,Sound_1,None,y,1,1,experiment,rt,Male,Left,21,1,0
RT_4-1,Left,2,Left,597,-35,-27,Sound_1,Incongruent,y,2,1,experiment,rt,Male,Left,21,1,0
RT_4-1,Right,1,Right,503,0,-1,Sound_1,None,n,NA,1,experiment,rt,Male,Left,21,1,0
RT_4-1,Left,7,Left,633,35,35,None,Incongruent,n,NA,1,experiment,rt,Male,Left,21,1,0
RT_4-1,Right,6,Right,597,-33,-31,None,Congruent,n,NA,1,experiment,rt,Male,Left,21,1,0
RT_4-1,Left,2,Left,599,34,34,None,None,n,NA,1,experiment,rt,Male,Left,21,1,0
RT_4-1,Right,4,Right,598,-1,1,None,Incongruent,y,4,1,experiment,rt,Male,Left,21,1,0
RT_4-1,Right,1,Right,466,33,40,None,None,y,1,1,experiment,rt,Male,Left,21,1,0
RT_4-1,Right,8,Right,631,-39,-30,Sound_1,Incongruent,y,8,1,experiment,rt,Male,Left,21,1,0
RT_4-1,Right,6,Right,532,33,31,None,Congruent,y,6,1,experiment,rt,Male,Left,21,1,0
RT_4-1,Left,2,Left,732,3,3,Sound_1,Incongruent,n,NA,1,experiment,rt,Male,Left,21,1,0
RT_4-1,Right,2,Right,665,-55,-52,None,None,y,2,1,experiment,rt,Male,Left,21,1,0
RT_4-1,Left,5,Left,501,-3,-3,None,Congruent,n,NA,1,experiment,rt,Male,Left,21,1,0
RT_4-1,Right,7,Right,634,-47,-44,Sound_1,Incongruent,n,NA,1,experiment,rt,Male,Left,21,1,0
RT_4-1,Right,6,Right,632,37,41,None,None,n,NA,1,experiment,rt,Male,Left,21,1,0
RT_4-1,Left,3,Left,564,1,3,Sound_1,Incongruent,y,3,1,experiment,rt,Male,Left,21,1,0
RT_4-1,Right,8,Right,601,47,49,None,Congruent,n,NA,1,experiment,rt,Male,Left,21,1,0
RT_4-1,Left,7,Left,498,3,5,None,Incongruent,y,7,1,experiment,rt,Male,Left,21,1,0
RT_4-1,Right,8,Right,532,-48,-48,None,None,y,8,1,experiment,rt,Male,Left,21,1,0
RT_4-1,Left,6,Left,667,1,1,None,Incongruent,n,NA,1,experiment,rt,Male,Left,21,1,0
RT_4-1,Right,1,Right,498,-39,-35,Sound_1,None,y,1,1,experiment,rt,Male,Left,21,1,0
RT_4-1,Left,7,Left,699,0,3,Sound_1,Congruent,n,NA,1,experiment,rt,Male,Left,21,1,0
RT_4-1,Right,2,Right,465,-40,-40,Sound_1,Congruent,n,NA,1,experiment,rt,Male,Left,21,1,0
RT_4-1,Left,3,Left,567,-1,-1,Sound_1,None,n,NA,1,experiment,rt,Male,Left,21,1,0
RT_4-1,Right,7,Right,663,46,47,Sound_1,Congruent,n,NA,1,experiment,rt,Male,Left,21,1,0
RT_4-1,Right,3,Left,568,5,8,Sound_1,Congruent,n,NA,1,experiment,rt,Male,Left,21,0,1
RT_4-1,Right,2,Right,529,-35,-30,Sound_1,Incongruent,y,2,1,experiment,rt,Male,Left,21,1,0
RT_4-1,Left,1,Left,532,39,39,None,Congruent,y,1,1,experiment,rt,Male,Left,21,1,0
RT_4-1,Right,5,Right,562,3,0,Sound_1,None,y,5,1,experiment,rt,Male,Left,21,1,0
RT_4-1,Right,3,Right,463,-32,-31,Sound_1,Congruent,y,3,1,experiment,rt,Male,Left,21,1,0
RT_4-1,Right,8,Right,566,2,2,None,None,n,NA,1,experiment,rt,Male,Left,21,1,0
RT_4-1,Left,1,Left,631,36,34,Sound_1,Incongruent,y,1,1,experiment,rt,Male,Left,21,1,0
RT_4-1,Right,2,Right,434,2,2,None,Congruent,y,2,1,experiment,rt,Male,Left,21,1,0
RT_4-1,Left,6,Left,530,-30,-29,Sound_1,None,y,6,1,experiment,rt,Male,Left,21,1,0
RT_4-1,Right,1,Right,499,32,30,Sound_1,Congruent,n,NA,1,experiment,rt,Male,Left,21,1,0
RT_4-1,Left,7,Left,398,-3,0,Sound_1,None,y,7,1,experiment,rt,Male,Left,21,1,0
RT_4-1,Right,2,Right,567,35,33,None,Congruent,n,NA,1,experiment,rt,Male,Left,21,1,0
RT_4-1,Left,2,Right,468,4,7,Sound_1,Congruent,y,2,1,experiment,rt,Male,Left,21,0,1
RT_4-1,Right,3,Right,532,-32,-32,Sound_1,None,n,NA,1,experiment,rt,Male,Left,21,1,0
RT_4-1,Left,4,Left,366,5,0,Sound_1,None,y,4,1,experiment,rt,Male,Left,21,1,0
RT_4-1,Right,5,Right,571,-32,-31,Sound_1,Incongruent,y,5,1,experiment,rt,Male,Left,21,1,0
RT_4-1,Right,2,Right,498,35,36,None,Incongruent,y,2,1,experiment,rt,Male,Left,21,1,0
RT_4-1,Right,4,Right,569,1,3,Sound_1,Congruent,y,4,1,experiment,rt,Male,Left,21,1,0
RT_4-1,Left,5,Left,534,48,43,None,Incongruent,y,5,1,experiment,rt,Male,Left,21,1,0
RT_4-1,Left,5,Left,533,7,5,None,None,y,5,1,experiment,rt,Male,Left,21,1,0
RT_4-1,Right,5,Right,732,-31,-31,None,Incongruent,n,NA,1,experiment,rt,Male,Left,21,1,0
RT_4-1,Left,6,Right,599,37,35,Sound_1,Incongruent,n,NA,1,experiment,rt,Male,Left,21,0,1
RT_4-1,Right,3,Right,698,5,8,None,Incongruent,n,NA,1,experiment,rt,Male,Left,21,1,0
RT_4-1,Right,7,Right,564,-31,-30,Sound_1,None,y,7,1,experiment,rt,Male,Left,21,1,0
RT_4-1,Left,6,Left,398,9,4,Sound_1,Incongruent,y,6,1,experiment,rt,Male,Left,21,1,0
RT_4-1,Left,3,Left,564,41,39,None,None,y,3,1,experiment,rt,Male,Left,21,1,0
RT_4-1,Left,1,Left,668,-30,-30,None,Congruent,n,NA,1,experiment,rt,Male,Left,21,1,0
RT_4-1,Left,1,Left,570,39,45,Sound_1,None,n,NA,1,experiment,rt,Male,Left,21,1,0
RT_4-1,Left,8,Left,566,0,4,Sound_1,Incongruent,n,NA,1,experiment,rt,Male,Left,21,1,0
RT_4-1,Left,4,Left,532,33,33,Sound_1,None,n,NA,1,experiment,rt,Male,Left,21,1,0
RT_4-1,Left,7,Left,567,3,10,None,None,n,NA,1,experiment,rt,Male,Left,21,1,0
RT_4-1,Left,5,Left,633,38,36,None,None,n,NA,1,experiment,rt,Male,Left,21,1,0
RT_4-1,Left,2,Left,564,-34,-26,None,Congruent,y,2,1,experiment,rt,Male,Left,21,1,0
RT_4-1,Left,8,Left,566,-1,1,None,Congruent,n,NA,1,experiment,rt,Male,Left,21,1,0
RT_4-1,Right,5,Left,366,37,37,None,Incongruent,y,5,1,experiment,rt,Male,Left,21,0,1
RT_4-1,Right,6,Right,499,4,6,Sound_1,Congruent,n,NA,1,experiment,rt,Male,Left,21,1,0
RT_4-1,Left,4,Left,499,57,57,None,Congruent,y,4,1,experiment,rt,Male,Left,21,1,0
RT_4-1,Right,1,Right,565,-32,-34,None,Congruent,y,1,1,experiment,rt,Male,Left,21,1,0
RT_4-1,Left,1,Left,666,1,5,None,None,n,NA,1,experiment,rt,Male,Left,21,1,0
RT_4-1,Right,2,Left,663,-39,-35,None,Incongruent,n,NA,1,experiment,rt,Male,Left,21,0,1
RT_4-1,Left,6,Left,532,44,40,None,None,y,6,1,experiment,rt,Male,Left,21,1,0
RT_4-1,Left,3,Left,398,-39,-36,Sound_1,None,y,3,1,experiment,rt,Male,Left,21,1,0
RT_4-1,Right,7,Right,665,3,2,None,Incongruent,y,7,1,experiment,rt,Male,Left,21,1,0
RT_4-1,Left,4,Left,731,34,30,None,Incongruent,n,NA,1,experiment,rt,Male,Left,21,1,0
RT_4-1,Left,8,Left,501,6,6,None,None,y,8,1,experiment,rt,Male,Left,21,1,0
RT_4-1,Left,3,Left,668,38,40,Sound_1,Incongruent,n,NA,1,experiment,rt,Male,Left,21,1,0
RT_4-1,Left,4,Left,534,5,5,None,Incongruent,y,4,1,experiment,rt,Male,Left,21,1,0
RT_4-1,Right,4,Right,566,33,31,None,None,y,4,1,experiment,rt,Male,Left,21,1,0
RT_4-1,Right,4,Right,635,-32,-29,None,None,n,NA,1,experiment,rt,Male,Left,21,1,0
RT_4-1,Right,7,Right,732,34,33,None,Incongruent,n,NA,1,experiment,rt,Male,Left,21,1,0
RT_4-1,Right,3,Right,799,-30,-25,None,Incongruent,y,3,1,experiment,rt,Male,Left,21,1,0
RT_4-1,Right,8,Right,530,31,30,Sound_1,Congruent,y,8,1,experiment,rt,Male,Left,21,1,0
RT_4-1,Left,3,Left,666,0,5,None,Incongruent,n,NA,1,experiment,rt,Male,Left,21,1,0
RT_4-1,Right,4,Right,566,-44,-46,None,Congruent,y,4,1,experiment,rt,Male,Left,21,1,0
RT_4-1,Right,1,Right,496,35,29,Sound_1,Incongruent,y,1,1,experiment,rt,Male,Left,21,1,0
RT_4-1,Right,4,Right,600,5,7,None,Congruent,n,NA,1,experiment,rt,Male,Left,21,1,0
RT_4-1,Right,5,Right,533,31,30,Sound_1,None,n,NA,1,experiment,rt,Male,Left,21,1,0
RT_4-1,Right,5,Right,734,1,4,Sound_1,Incongruent,n,NA,1,experiment,rt,Male,Left,21,1,0
RT_4-1,Right,4,Right,533,34,34,Sound_1,Incongruent,y,4,1,experiment,rt,Male,Left,21,1,0
RT_4-1,Left,3,Left,733,-29,-18,None,Incongruent,y,3,1,experiment,rt,Male,Left,21,1,0
RT_4-1,Right,6,Right,632,32,30,Sound_1,Incongruent,n,NA,1,experiment,rt,Male,Left,21,1,0
RT_4-1,Left,4,Left,432,-36,-37,None,None,y,4,1,experiment,rt,Male,Left,21,1,0
RT_4-1,Right,3,Right,365,38,39,Sound_1,None,y,3,1,experiment,rt,Male,Left,21,1,0
RT_4-1,Right,6,Right,502,-1,1,Sound_1,Incongruent,y,6,1,experiment,rt,Male,Left,21,1,0
RT_4-1,Left,3,Left,465,33,31,Sound_1,Congruent,y,3,1,experiment,rt,Male,Left,21,1,0
RT_4-1,Left,8,Left,534,-1,2,Sound_1,Congruent,y,8,1,experiment,rt,Male,Left,21,1,0
RT_4-1,Left,4,Left,565,-32,-33,None,Congruent,n,NA,1,experiment,rt,Male,Left,21,1,0
RT_4-1,Left,3,Left,634,40,40,None,Congruent,n,NA,1,experiment,rt,Male,Left,21,1,0
RT_4-1,Left,1,Left,466,-37,-35,None,None,y,1,1,experiment,rt,Male,Left,21,1,0
RT_4-1,Left,3,Left,499,0,0,None,Congruent,y,3,1,experiment,rt,Male,Left,21,1,0
RT_4-1,Right,4,Right,466,35,35,Sound_1,Congruent,n,NA,1,experiment,rt,Male,Left,21,1,0
RT_4-1,Right,4,Right,536,3,9,Sound_1,None,n,NA,1,experiment,rt,Male,Left,21,1,0
RT_4-1,Left,7,Left,466,-34,-35,None,Congruent,n,NA,1,experiment,rt,Male,Left,21,1,0
RT_4-1,Right,1,Right,603,-1,1,None,Incongruent,y,1,1,experiment,rt,Male,Left,21,1,0
RT_4-1,Left,5,Left,533,-41,-39,None,Incongruent,n,NA,1,experiment,rt,Male,Left,21,1,0
RT_4-1,Left,6,Left,466,-1,-1,Sound_1,None,n,NA,1,experiment,rt,Male,Left,21,1,0
RT_4-1,Right,4,Right,334,-43,-42,Sound_1,None,y,4,1,experiment,rt,Male,Left,21,1,0
RT_4-1,Left,8,Left,532,43,43,Sound_1,Congruent,n,NA,1,experiment,rt,Male,Left,21,1,0
RT_4-1,Right,6,Right,731,-43,-22,None,Incongruent,y,6,1,experiment,rt,Male,Left,21,1,0
RT_4-1,Left,1,Left,605,34,33,None,Incongruent,n,NA,1,experiment,rt,Male,Left,21,1,0
RT_4-1,Right,8,Right,499,7,6,Sound_1,Incongruent,n,NA,1,experiment,rt,Male,Left,21,1,0
RT_4-1,Right,6,Left,431,-47,-43,Sound_1,Congruent,y,6,1,experiment,rt,Male,Left,21,0,1
RT_4-1,Right,8,Right,469,37,35,Sound_1,None,n,NA,1,experiment,rt,Male,Left,21,1,0
RT_4-1,Right,3,Right,566,-37,-39,None,Congruent,n,NA,1,experiment,rt,Male,Left,21,1,0
RT_4-1,Left,8,Left,529,34,37,Sound_1,None,y,8,1,experiment,rt,Male,Left,21,1,0
RT_4-1,Left,1,Left,497,-34,-34,Sound_1,Congruent,y,1,1,experiment,rt,Male,Left,21,1,0
RT_4-1,Left,7,Left,532,31,33,Sound_1,Incongruent,y,7,1,experiment,rt,Male,Left,21,1,0
RT_4-1,Right,6,Right,633,-56,-54,Sound_1,None,n,NA,1,experiment,rt,Male,Left,21,1,0
RT_4-1,Left,1,Left,501,2,2,None,Incongruent,y,1,1,experiment,rt,Male,Left,21,1,0
RT_4-1,Right,4,Right,698,-42,-35,Sound_1,Incongruent,n,NA,1,experiment,rt,Male,Left,21,1,0
RT_4-1,Left,4,Left,536,3,3,Sound_1,Congruent,n,NA,1,experiment,rt,Male,Left,21,1,0
RT_4-1,Right,4,Right,699,40,40,None,Incongruent,n,NA,1,experiment,rt,Male,Left,21,1,0
RT_4-1,Right,3,Left,434,8,4,Sound_1,Incongruent,y,3,1,experiment,rt,Male,Left,21,0,1
RT_4-1,Right,8,Right,499,-32,-34,Sound_1,Congruent,n,NA,1,experiment,rt,Male,Left,21,1,0
RT_4-1,Left,7,Left,533,36,39,Sound_1,None,n,NA,1,experiment,rt,Male,Left,21,1,0
RT_4-1,Left,2,Left,797,-31,-23,None,Incongruent,n,NA,1,experiment,rt,Male,Left,21,1,0
RT_4-1,Right,8,Right,597,42,36,None,Incongruent,y,8,1,experiment,rt,Male,Left,21,1,0
RT_4-1,Right,7,Right,597,0,5,Sound_1,None,n,NA,1,experiment,rt,Male,Left,21,1,0
RT_4-1,Right,5,Right,532,-31,-24,Sound_1,Congruent,n,NA,1,experiment,rt,Male,Left,21,1,0
RT_4-1,Right,1,Right,731,-1,-4,None,Congruent,n,NA,1,experiment,rt,Male,Left,21,1,0
RT_4-1,Left,5,Left,498,39,38,Sound_1,None,y,5,1,experiment,rt,Male,Left,21,1,0
RT_4-1,Right,7,Right,499,3,5,Sound_1,Congruent,y,7,1,experiment,rt,Male,Left,21,1,0
RT_4-1,Left,3,Left,565,-39,-33,Sound_1,Congruent,n,NA,1,experiment,rt,Male,Left,21,1,0
RT_4-1,Left,1,Left,566,-2,-1,Sound_1,Congruent,n,NA,1,experiment,rt,Male,Left,21,1,0
RT_4-1,Left,7,Left,533,-41,-40,Sound_1,Incongruent,n,NA,1,experiment,rt,Male,Left,21,1,0
RT_4-1,Right,1,Right,497,-3,-6,Sound_1,Congruent,y,1,1,experiment,rt,Male,Left,21,1,0
RT_4-1,Left,6,Left,597,38,35,None,Congruent,n,NA,1,experiment,rt,Male,Left,21,1,0
RT_4-1,Right,1,Right,700,-37,-31,Sound_1,Incongruent,n,NA,1,experiment,rt,Male,Left,21,1,0
RT_4-1,Right,7,Right,567,-1,-1,None,Congruent,n,NA,1,experiment,rt,Male,Left,21,1,0
RT_4-1,Right,5,Right,533,47,44,Sound_1,Congruent,y,5,1,experiment,rt,Male,Left,21,1,0
RT_4-1,Left,6,Left,639,-35,-23,None,None,n,NA,1,experiment,rt,Male,Left,21,1,0
RT_4-1,Left,2,Left,633,-1,3,None,Congruent,n,NA,1,experiment,rt,Male,Left,21,1,0
RT_4-1,Left,1,Left,835,-51,-51,Sound_1,Incongruent,n,NA,1,experiment,rt,Male,Left,21,1,0
RT_4-1,Left,5,Left,529,6,0,Sound_1,Congruent,y,5,1,experiment,rt,Male,Left,21,1,0
RT_4-1,Left,8,Left,666,-33,-34,None,Incongruent,n,NA,1,experiment,rt,Male,Left,21,1,0
RT_4-1,Left,6,Left,503,40,39,Sound_1,Congruent,y,6,1,experiment,rt,Male,Left,21,1,0
RT_4-1,Left,7,Left,466,-33,-30,Sound_1,Congruent,y,7,1,experiment,rt,Male,Left,21,1,0
RT_4-1,Left,2,Left,600,35,41,None,Incongruent,y,2,1,experiment,rt,Male,Left,21,1,0
RT_4-1,Right,5,Right,570,-36,-32,None,None,y,5,1,experiment,rt,Male,Left,21,1,0
RT_4-1,Right,3,Right,502,32,29,None,Congruent,y,3,1,experiment,rt,Male,Left,21,1,0
RT_4-1,Left,4,Left,501,-40,-38,Sound_1,Incongruent,n,NA,1,experiment,rt,Male,Left,21,1,0
RT_4-1,Right,2,Right,364,9,13,Sound_1,None,y,2,1,experiment,rt,Male,Left,21,1,0
RT_4-1,Right,5,Right,600,30,32,None,Congruent,n,NA,1,experiment,rt,Male,Left,21,1,0
RT_4-1,Right,7,Right,600,-41,-39,None,None,n,NA,1,experiment,rt,Male,Left,21,1,0
RT_4-1,Right,2,Left,533,-1,-1,Sound_1,Incongruent,n,NA,1,experiment,rt,Male,Left,21,0,1
RT_4-1,Left,7,Left,471,-35,-33,None,None,y,7,1,experiment,rt,Male,Left,21,1,0
RT_4-1,Left,4,Left,666,42,44,Sound_1,Incongruent,y,4,1,experiment,rt,Male,Left,21,1,0
RT_4-1,Left,8,Left,400,-36,-33,None,Congruent,y,8,1,experiment,rt,Male,Left,21,1,0
RT_4-1,Left,8,Left,664,47,37,None,Incongruent,y,8,1,experiment,rt,Male,Left,21,1,0
RT_4-1,Left,5,Left,499,-55,-50,None,Congruent,y,5,1,experiment,rt,Male,Left,21,1,0
RT_4-1,Left,5,Left,464,33,29,Sound_1,Congruent,n,NA,1,experiment,rt,Male,Left,21,1,0
RT_4-1,Right,8,Right,465,0,5,Sound_1,None,y,8,1,experiment,rt,Male,Left,21,1,0
RT_4-1,Right,1,Right,596,47,49,None,Incongruent,n,NA,1,experiment,rt,Male,Left,21,1,0
RT_4-1,Left,8,Left,565,-39,-46,Sound_1,Incongruent,y,8,1,experiment,rt,Male,Left,21,1,0
RT_4-1,Right,3,Left,565,36,33,Sound_1,Incongruent,n,NA,1,experiment,rt,Male,Left,21,0,1
RT_4-1,Left,6,Left,499,0,2,None,Congruent,y,6,1,experiment,rt,Male,Left,21,1,0
RT_4-1,Left,3,Left,667,-35,-36,None,None,n,NA,1,experiment,rt,Male,Left,21,1,0
RT_3-1,Left,8,None,1001,32,19,None,None,n,NA,1,practice,rt,Female,Right,20,0,1
RT_3-1,Left,7,Left,799,-8,1,Sound_1,Congruent,n,NA,1,practice,rt,Female,Right,20,1,0
RT_3-1,Left,5,Left,665,33,34,Sound_1,Congruent,n,NA,1,practice,rt,Female,Right,20,1,0
RT_3-1,Left,4,None,1001,4,1,None,None,n,NA,1,practice,rt,Female,Right,20,0,1
RT_3-1,Right,2,Right,898,47,48,None,Incongruent,y,2,1,practice,rt,Female,Right,20,1,0
RT_3-1,Right,8,Right,698,-2,0,Sound_1,None,y,8,1,practice,rt,Female,Right,20,1,0
RT_3-1,Left,3,Left,865,-38,-40,None,None,n,NA,1,practice,rt,Female,Right,20,1,0
RT_3-1,Right,5,Right,865,34,35,None,Congruent,n,NA,1,practice,rt,Female,Right,20,1,0
RT_3-1,Right,1,Right,701,-37,-32,None,Congruent,y,1,1,practice,rt,Female,Right,20,1,0
RT_3-1,Left,5,Left,765,39,40,None,None,n,NA,1,practice,rt,Female,Right,20,1,0
RT_3-1,Left,7,Left,731,-33,-34,None,Congruent,n,NA,1,practice,rt,Female,Right,20,1,0
RT_3-1,Right,1,Right,732,0,0,None,Congruent,n,NA,1,practice,rt,Female,Right,20,1,0
RT_3-1,Left,2,Left,765,33,32,Sound_1,None,y,2,1,practice,rt,Female,Right,20,1,0
RT_3-1,Right,3,Right,699,-9,0,None,None,y,3,1,practice,rt,Female,Right,20,1,0
RT_3-1,Left,2,Left,831,-32,-27,Sound_1,None,n,NA,1,practice,rt,Female,Right,20,1,0
RT_3-1,Right,4,None,1001,40,47,None,Incongruent,n,NA,1,practice,rt,Female,Right,20,0,1
RT_3-1,Right,3,Right,767,-48,-48,Sound_1,None,n,NA,1,practice,rt,Female,Right,20,1,0
RT_3-1,Right,8,Right,699,39,39,None,Congruent,n,NA,1,practice,rt,Female,Right,20,1,0
RT_3-1,Left,4,Left,799,-39,-40,Sound_1,Incongruent,n,NA,1,practice,rt,Female,Right,20,1,0
RT_3-1,Left,5,Left,631,51,48,Sound_1,None,y,5,1,practice,rt,Female,Right,20,1,0
RT_3-1,Right,5,Right,997,-48,-44,None,Incongruent,n,NA,1,practice,rt,Female,Right,20,1,0
RT_3-1,Right,7,Right,932,4,2,None,Congruent,n,NA,1,practice,rt,Female,Right,20,1,0
RT_3-1,Left,6,Left,764,45,55,Sound_1,Congruent,y,6,1,practice,rt,Female,Right,20,1,0
RT_3-1,Left,8,Left,764,2,3,Sound_1,Incongruent,n,NA,1,practice,rt,Female,Right,20,1,0
RT_3-1,Left,1,Left,799,-1,0,None,None,n,NA,1,experiment,rt,Female,Right,20,1,0
RT_3-1,Right,5,Right,633,-41,-30,None,None,y,5,1,experiment,rt,Female,Right,20,1,0
RT_3-1,Left,8,Left,631,7,2,Sound_1,Congruent,y,8,1,experiment,rt,Female,Right,20,1,0
RT_3-1,Left,7,Left,665,-42,-39,Sound_1,Incongruent,n,NA,1,experiment,rt,Female,Right,20,1,0
RT_3-1,Right,1,Right,498,2,-1,Sound_1,None,n,NA,1,experiment,rt,Female,Right,20,1,0
RT_3-1,Right,8,Right,533,51,48,Sound_1,Congruent,y,8,1,experiment,rt,Female,Right,20,1,0
RT_3-1,Right,7,Left,463,-7,-3,Sound_1,None,n,NA,1,experiment,rt,Female,Right,20,0,1
RT_3-1,Right,1,Right,601,-37,-31,None,None,n,NA,1,experiment,rt,Female,Right,20,1,0
RT_3-1,Left,6,Left,767,5,0,None,Incongruent,n,NA,1,experiment,rt,Female,Right,20,1,0
RT_3-1,Right,5,Right,534,56,57,Sound_1,None,n,NA,1,experiment,rt,Female,Right,20,1,0
RT_3-1,Left,4,Left,598,-5,-5,Sound_1,Congruent,n,NA,1,experiment,rt,Female,Right,20,1,0
RT_3-1,Right,8,Right,498,-44,-42,Sound_1,Congruent,n,NA,1,experiment,rt,Female,Right,20,1,0
RT_3-1,Left,1,Left,597,11,7,Sound_1,None,y,1,1,experiment,rt,Female,Right,20,1,0
RT_3-1,Right,4,Right,533,37,42,Sound_1,Congruent,n,NA,1,experiment,rt,Female,Right,20,1,0
RT_3-1,Left,1,Left,500,-5,-5,Sound_1,Congruent,n,NA,1,experiment,rt,Female,Right,20,1,0
RT_3-1,Left,4,Left,663,-46,-48,Sound_1,Incongruent,n,NA,1,experiment,rt,Female,Right,20,1,0
RT_3-1,Right,2,Right,468,9,7,Sound_1,None,y,2,1,experiment,rt,Female,Right,20,1,0
RT_3-1,Right,7,Right,763,41,45,None,Incongruent,n,NA,1,experiment,rt,Female,Right,20,1,0
RT_3-1,Left,2,Left,730,10,7,None,None,y,2,1,experiment,rt,Female,Right,20,1,0
RT_3-1,Left,5,Left,499,-37,-36,Sound_1,None,n,NA,1,experiment,rt,Female,Right,20,1,0
RT_3-1,Right,3,Right,668,43,46,None,None,n,NA,1,experiment,rt,Female,Right,20,1,0
RT_3-1,Right,8,Right,633,-3,1,None,Congruent,y,8,1,experiment,rt,Female,Right,20,1,0
RT_3-1,Right,2,Right,469,-44,-33,None,None,y,2,1,experiment,rt,Female,Right,20,1,0
RT_3-1,Left,2,Left,799,55,25,Sound_1,Congruent,n,NA,1,experiment,rt,Female,Right,20,1,0
RT_3-1,Right,1,Right,465,-6,-2,Sound_1,Congruent,y,1,1,experiment,rt,Female,Right,20,1,0
RT_3-1,Right,1,Right,599,-30,-28,Sound_1,Incongruent,n,NA,1,experiment,rt,Female,Right,20,1,0
RT_3-1,Right,6,Right,597,1,0,Sound_1,Incongruent,y,6,1,experiment,rt,Female,Right,20,1,0
RT_3-1,Right,4,Right,565,47,46,None,Incongruent,n,NA,1,experiment,rt,Female,Right,20,1,0
RT_3-1,Left,3,Left,532,-45,-46,Sound_1,None,y,3,1,experiment,rt,Female,Right,20,1,0
RT_3-1,Left,7,Left,529,9,0,Sound_1,None,y,7,1,experiment,rt,Female,Right,20,1,0
RT_3-1,Left,4,Left,599,-50,-44,None,Congruent,n,NA,1,experiment,rt,Female,Right,20,1,0
RT_3-1,Left,5,Left,632,46,49,Sound_1,Congruent,n,NA,1,experiment,rt,Female,Right,20,1,0
RT_3-1,Left,7,Left,468,-56,-54,None,None,y,7,1,experiment,rt,Female,Right,20,1,0
RT_3-1,Left,8,Left,763,7,-2,Sound_1,Incongruent,n,NA,1,experiment,rt,Female,Right,20,1,0
RT_3-1,Left,1,Left,637,-41,-49,Sound_1,Incongruent,n,NA,1,experiment,rt,Female,Right,20,1,0
RT_3-1,Right,1,Right,567,47,46,Sound_1,Congruent,n,NA,1,experiment,rt,Female,Right,20,1,0
RT_3-1,Left,5,Left,631,8,5,None,Congruent,n,NA,1,experiment,rt,Female,Right,20,1,0
RT_3-1,Left,1,Left,533,-53,-54,Sound_1,Congruent,y,1,1,experiment,rt,Female,Right,20,1,0
RT_3-1,Left,6,Left,597,55,55,Sound_1,Congruent,y,6,1,experiment,rt,Female,Right,20,1,0
RT_3-1,Left,6,Left,632,-1,0,Sound_1,Incongruent,y,6,1,experiment,rt,Female,Right,20,1,0
RT_3-1,Left,6,Left,731,52,49,None,Congruent,n,NA,1,experiment,rt,Female,Right,20,1,0
RT_3-1,Right,6,Left,465,-37,-36,Sound_1,None,n,NA,1,experiment,rt,Female,Right,20,0,1
RT_3-1,Right,8,Right,664,51,49,None,Congruent,n,NA,1,experiment,rt,Female,Right,20,1,0
RT_3-1,Right,5,Right,598,-2,-3,Sound_1,None,y,5,1,experiment,rt,Female,Right,20,1,0
RT_3-1,Left,8,Left,565,-46,-47,None,Congruent,y,8,1,experiment,rt,Female,Right,20,1,0
RT_3-1,Right,7,Right,698,-4,-1,None,Congruent,n,NA,1,experiment,rt,Female,Right,20,1,0
RT_3-1,Left,5,Left,534,50,50,Sound_1,None,y,5,1,experiment,rt,Female,Right,20,1,0
RT_3-1,Left,6,Left,732,-37,-37,None,Incongruent,y,6,1,experiment,rt,Female,Right,20,1,0
RT_3-1,Right,7,Right,699,54,55,Sound_1,Congruent,n,NA,1,experiment,rt,Female,Right,20,1,0
RT_3-1,Right,8,Right,634,-4,-2,None,None,n,NA,1,experiment,rt,Female,Right,20,1,0
RT_3-1,Right,1,Right,630,42,46,None,Incongruent,n,NA,1,experiment,rt,Female,Right,20,1,0
RT_3-1,Right,7,Right,666,-58,-57,None,None,n,NA,1,experiment,rt,Female,Right,20,1,0
RT_3-1,Left,5,Left,498,4,4,None,None,y,5,1,experiment,rt,Female,Right,20,1,0
RT_3-1,Left,6,Left,833,59,35,None,None,y,6,1,experiment,rt,Female,Right,20,1,0
RT_3-1,Right,2,Right,600,-46,-46,None,Incongruent,n,NA,1,experiment,rt,Female,Right,20,1,0
RT_3-1,Left,3,Left,662,1,-5,Sound_1,Incongruent,y,3,1,experiment,rt,Female,Right,20,1,0
RT_3-1,Right,6,Right,763,39,34,None,None,n,NA,1,experiment,rt,Female,Right,20,1,0
RT_3-1,Left,7,Left,699,-3,-2,None,None,n,NA,1,experiment,rt,Female,Right,20,1,0
RT_3-1,Right,7,Right,532,-44,-41,None,Congruent,y,7,1,experiment,rt,Female,Right,20,1,0
RT_3-1,Left,5,Left,766,31,31,None,Incongruent,y,5,1,experiment,rt,Female,Right,20,1,0
RT_3-1,Right,6,Right,630,-6,-2,None,Incongruent,n,NA,1,experiment,rt,Female,Right,20,1,0
RT_3-1,Left,8,Left,631,46,52,Sound_1,None,y,8,1,experiment,rt,Female,Right,20,1,0
RT_3-1,Left,8,Left,698,-6,-3,None,None,y,8,1,experiment,rt,Female,Right,20,1,0
RT_3-1,Left,2,Left,699,-36,-39,None,Congruent,y,2,1,experiment,rt,Female,Right,20,1,0
RT_3-1,Right,3,Right,734,2,-2,None,Incongruent,n,NA,1,experiment,rt,Female,Right,20,1,0
RT_3-1,Right,8,Right,563,57,58,None,Incongruent,y,8,1,experiment,rt,Female,Right,20,1,0
RT_3-1,Right,4,Right,732,-50,-49,None,None,n,NA,1,experiment,rt,Female,Right,20,1,0
RT_3-1,Right,5,Right,599,43,46,None,Incongruent,y,5,1,experiment,rt,Female,Right,20,1,0
RT_3-1,Left,2,Right,531,-42,-41,Sound_1,None,n,NA,1,experiment,rt,Female,Right,20,0,1
RT_3-1,Right,8,Right,668,56,56,Sound_1,None,n,NA,1,experiment,rt,Female,Right,20,1,0
RT_3-1,Right,4,Right,598,1,-1,Sound_1,None,n,NA,1,experiment,rt,Female,Right,20,1,0
RT_3-1,Left,8,Left,665,58,56,Sound_1,Congruent,n,NA,1,experiment,rt,Female,Right,20,1,0
RT_3-1,Left,6,Left,531,-52,-54,Sound_1,Congruent,n,NA,1,experiment,rt,Female,Right,20,1,0
RT_3-1,Left,6,Left,631,51,52,Sound_1,Incongruent,n,NA,1,experiment,rt,Female,Right,20,1,0
RT_3-1,Right,5,Right,700,0,-2,None,None,n,NA,1,experiment,rt,Female,Right,20,1,0
RT_3-1,Left,5,Left,599,-37,-38,None,Congruent,y,5,1,experiment,rt,Female,Right,20,1,0
RT_3-1,Right,1,Right,499,7,4,None,Incongruent,y,1,1,experiment,rt,Female,Right,20,1,0
RT_3-1,Left,8,Left,564,37,27,None,Incongruent,y,8,1,experiment,rt,Female,Right,20,1,0
RT_3-1,Right,5,Right,631,-43,-41,Sound_1,Incongruent,y,5,1,experiment,rt,Female,Right,20,1,0
RT_3-1,Right,2,Right,532,1,-2,None,None,n,NA,1,experiment,rt,Female,Right,20,1,0
RT_3-1,Right,3,Right,399,-39,-38,None,Incongruent,y,3,1,experiment,rt,Female,Right,20,1,0
RT_3-1,Right,2,Right,565,31,30,None,Incongruent,y,2,1,experiment,rt,Female,Right,20,1,0
RT_3-1,Left,7,Left,464,-47,-51,Sound_1,Congruent,y,7,1,experiment,rt,Female,Right,20,1,0
RT_3-1,Left,3,Left,799,49,48,Sound_1,Incongruent,n,NA,1,experiment,rt,Female,Right,20,1,0
RT_3-1,Left,2,Right,765,-55,-54,None,Incongruent,n,NA,1,experiment,rt,Female,Right,20,0,1
RT_3-1,Right,2,Right,466,6,5,None,Congruent,y,2,1,experiment,rt,Female,Right,20,1,0
RT_3-1,Right,2,Right,631,45,42,None,Congruent,n,NA,1,experiment,rt,Female,Right,20,1,0
RT_3-1,Left,6,Left,531,-6,-4,Sound_1,None,n,NA,1,experiment,rt,Female,Right,20,1,0
RT_3-1,Left,1,Left,631,54,47,Sound_1,Incongruent,y,1,1,experiment,rt,Female,Right,20,1,0
RT_3-1,Right,6,Right,699,-50,-50,None,Incongruent,y,6,1,experiment,rt,Female,Right,20,1,0
RT_3-1,Left,4,Left,833,44,48,Sound_1,None,n,NA,1,experiment,rt,Female,Right,20,1,0
RT_3-1,Right,5,Left,699,-2,-1,Sound_1,Incongruent,n,NA,1,experiment,rt,Female,Right,20,0,1
RT_3-1,Right,3,None,1001,46,35,None,Congruent,y,3,1,experiment,rt,Female,Right,20,0,1
RT_3-1,Left,7,Left,700,-37,-38,None,Congruent,n,NA,1,experiment,rt,Female,Right,20,1,0
RT_3-1,Left,7,Right,764,44,38,None,Incongruent,n,NA,1,experiment,rt,Female,Right,20,0,1
RT_3-1,Right,8,Right,531,-12,0,Sound_1,None,y,8,1,experiment,rt,Female,Right,20,1,0
RT_3-1,Left,7,Left,465,44,38,None,Congruent,y,7,1,experiment,rt,Female,Right,20,1,0
RT_3-1,Left,8,Left,566,-4,-9,None,Congruent,n,NA,1,experiment,rt,Female,Right,20,1,0
RT_3-1,Left,3,Left,532,38,34,None,None,y,3,1,experiment,rt,Female,Right,20,1,0
RT_3-1,Right,3,Right,730,8,5,Sound_1,Incongruent,y,3,1,experiment,rt,Female,Right,20,1,0
RT_3-1,Left,3,Left,702,-38,-39,None,None,n,NA,1,experiment,rt,Female,Right,20,1,0
RT_3-1,Left,1,Left,532,48,44,Sound_1,None,n,NA,1,experiment,rt,Female,Right,20,1,0
RT_3-1,Left,6,Left,465,-58,-59,Sound_1,None,y,6,1,experiment,rt,Female,Right,20,1,0
RT_3-1,Left,2,Left,665,38,36,None,Incongruent,y,2,1,experiment,rt,Female,Right,20,1,0
RT_3-1,Right,8,Left,697,-56,-54,Sound_1,Incongruent,y,8,1,experiment,rt,Female,Right,20,0,1
RT_3-1,Right,4,Right,697,37,32,Sound_1,Incongruent,y,4,1,experiment,rt,Female,Right,20,1,0
RT_3-1,Left,8,Left,566,-50,-50,Sound_1,None,n,NA,1,experiment,rt,Female,Right,20,1,0
RT_3-1,Right,3,Right,464,30,27,Sound_1,None,y,3,1,experiment,rt,Female,Right,20,1,0
RT_3-1,Right,4,Right,602,-6,-1,None,Incongruent,y,4,1,experiment,rt,Female,Right,20,1,0
RT_3-1,Right,4,Right,531,-33,-33,Sound_1,Incongruent,n,NA,1,experiment,rt,Female,Right,20,1,0
RT_3-1,Right,7,Right,632,53,49,Sound_1,Incongruent,y,7,1,experiment,rt,Female,Right,20,1,0
RT_3-1,Right,7,Right,565,-42,-38,Sound_1,None,y,7,1,experiment,rt,Female,Right,20,1,0
RT_3-1,Left,3,Left,566,7,0,Sound_1,None,n,NA,1,experiment,rt,Female,Right,20,1,0
RT_3-1,Right,1,Right,533,-30,-24,None,Congruent,y,1,1,experiment,rt,Female,Right,20,1,0
RT_3-1,Left,7,Left,597,6,4,Sound_1,Congruent,n,NA,1,experiment,rt,Female,Right,20,1,0
RT_3-1,Right,3,Right,732,45,60,Sound_1,Incongruent,n,NA,1,experiment,rt,Female,Right,20,1,0
RT_3-1,Right,4,Right,498,-57,-60,None,Congruent,y,4,1,experiment,rt,Female,Right,20,1,0
RT_3-1,Right,1,Right,699,1,2,None,Congruent,n,NA,1,experiment,rt,Female,Right,20,1,0
RT_3-1,Left,3,Left,665,58,53,Sound_1,Congruent,y,3,1,experiment,rt,Female,Right,20,1,0
RT_3-1,Left,3,Left,699,0,0,None,Incongruent,n,NA,1,experiment,rt,Female,Right,20,1,0
RT_3-1,Right,7,Right,698,-51,-48,Sound_1,Incongruent,n,NA,1,experiment,rt,Female,Right,20,1,0
RT_3-1,Right,4,Right,532,41,43,None,None,y,4,1,experiment,rt,Female,Right,20,1,0
RT_3-1,Right,4,Right,666,-3,-2,None,Congruent,n,NA,1,experiment,rt,Female,Right,20,1,0
RT_3-1,Right,1,Right,499,47,45,None,None,y,1,1,experiment,rt,Female,Right,20,1,0
RT_3-1,Left,5,Left,564,-44,-43,Sound_1,Incongruent,y,5,1,experiment,rt,Female,Right,20,1,0
RT_3-1,Right,7,Right,533,39,23,None,None,y,7,1,experiment,rt,Female,Right,20,1,0
RT_3-1,Right,8,Right,698,0,7,Sound_1,Incongruent,n,NA,1,experiment,rt,Female,Right,20,1,0
RT_3-1,Left,4,Left,833,42,43,None,Incongruent,n,NA,1,experiment,rt,Female,Right,20,1,0
RT_3-1,Right,4,Right,565,4,5,Sound_1,Congruent,y,4,1,experiment,rt,Female,Right,20,1,0
RT_3-1,Right,8,Right,532,-57,-59,None,None,y,8,1,experiment,rt,Female,Right,20,1,0
RT_3-1,Left,1,Left,532,11,0,None,Incongruent,y,1,1,experiment,rt,Female,Right,20,1,0
RT_3-1,Left,2,Left,564,-58,-56,Sound_1,Incongruent,y,2,1,experiment,rt,Female,Right,20,1,0
RT_3-1,Left,3,Left,732,42,32,None,Congruent,n,NA,1,experiment,rt,Female,Right,20,1,0
RT_3-1,Right,6,Left,599,0,8,Sound_1,Congruent,n,NA,1,experiment,rt,Female,Right,20,0,1
RT_3-1,Left,4,Left,565,-44,-44,Sound_1,Congruent,y,4,1,experiment,rt,Female,Right,20,1,0
RT_3-1,Left,1,Left,603,41,36,None,Congruent,y,1,1,experiment,rt,Female,Right,20,1,0
RT_3-1,Right,2,Right,534,-34,-30,Sound_1,Incongruent,y,2,1,experiment,rt,Female,Right,20,1,0
RT_3-1,Right,2,Right,563,32,33,Sound_1,None,n,NA,1,experiment,rt,Female,Right,20,1,0
RT_3-1,Right,6,Right,698,-56,-50,None,Congruent,n,NA,1,experiment,rt,Female,Right,20,1,0
RT_3-1,Right,6,Right,797,40,40,None,Congruent,y,6,1,experiment,rt,Female,Right,20,1,0
RT_3-1,Right,6,Right,599,-48,-44,Sound_1,Congruent,y,6,1,experiment,rt,Female,Right,20,1,0
RT_3-1,Left,7,Left,601,38,31,Sound_1,None,n,NA,1,experiment,rt,Female,Right,20,1,0
RT_3-1,Left,7,Left,598,-1,3,None,Incongruent,y,7,1,experiment,rt,Female,Right,20,1,0
RT_3-1,Left,7,Left,664,45,31,Sound_1,Incongruent,y,7,1,experiment,rt,Female,Right,20,1,0
RT_3-1,Right,2,Right,533,-47,-45,Sound_1,Congruent,n,NA,1,experiment,rt,Female,Right,20,1,0
RT_3-1,Right,6,Right,631,-8,-8,None,None,y,6,1,experiment,rt,Female,Right,20,1,0
RT_3-1,Left,3,Left,632,-31,-31,Sound_1,Congruent,n,NA,1,experiment,rt,Female,Right,20,1,0
RT_3-1,Left,4,Left,566,40,38,None,Congruent,y,4,1,experiment,rt,Female,Right,20,1,0
RT_3-1,Left,1,Left,599,-30,-28,None,None,y,1,1,experiment,rt,Female,Right,20,1,0
RT_3-1,Left,4,Left,597,39,39,Sound_1,Incongruent,y,4,1,experiment,rt,Female,Right,20,1,0
RT_3-1,Left,2,Left,600,-8,-1,Sound_1,Incongruent,n,NA,1,experiment,rt,Female,Right,20,1,0
RT_3-1,Right,5,Right,632,-41,-40,Sound_1,Congruent,n,NA,1,experiment,rt,Female,Right,20,1,0
RT_3-1,Right,3,Right,531,-9,-8,Sound_1,Congruent,n,NA,1,experiment,rt,Female,Right,20,1,0
RT_3-1,Right,4,Right,531,-47,-43,Sound_1,None,y,4,1,experiment,rt,Female,Right,20,1,0
RT_3-1,Right,1,Right,598,55,51,Sound_1,Incongruent,y,1,1,experiment,rt,Female,Right,20,1,0
RT_3-1,Left,4,Left,534,-5,-5,Sound_1,None,y,4,1,experiment,rt,Female,Right,20,1,0
RT_3-1,Right,3,Right,565,-42,-36,None,Congruent,n,NA,1,experiment,rt,Female,Right,20,1,0
RT_3-1,Left,2,Left,665,43,41,Sound_1,None,y,2,1,experiment,rt,Female,Right,20,1,0
RT_3-1,Right,8,None,1001,-57,-55,None,Incongruent,n,NA,1,experiment,rt,Female,Right,20,0,1
RT_3-1,Right,5,None,1001,48,46,None,Congruent,n,NA,1,experiment,rt,Female,Right,20,0,1
RT_3-1,Left,6,None,1001,-46,-41,None,None,n,NA,1,experiment,rt,Female,Right,20,0,1
RT_3-1,Right,6,Right,764,39,33,Sound_1,None,y,6,1,experiment,rt,Female,Right,20,1,0
RT_3-1,Left,3,Left,599,-4,1,None,Congruent,y,3,1,experiment,rt,Female,Right,20,1,0
RT_3-1,Left,8,Left,699,-48,-57,None,Incongruent,n,NA,1,experiment,rt,Female,Right,20,1,0
RT_3-1,Left,4,Left,734,7,5,None,None,n,NA,1,experiment,rt,Female,Right,20,1,0
RT_3-1,Right,5,Right,632,32,32,Sound_1,Congruent,y,5,1,experiment,rt,Female,Right,20,1,0
RT_3-1,Right,3,Right,533,-53,-57,Sound_1,None,n,NA,1,experiment,rt,Female,Right,20,1,0
RT_3-1,Left,2,Left,698,33,31,None,None,n,NA,1,experiment,rt,Female,Right,20,1,0
RT_3-1,Left,5,Left,698,-8,-6,Sound_1,Incongruent,n,NA,1,experiment,rt,Female,Right,20,1,0
RT_3-1,Left,8,Left,664,34,36,None,None,n,NA,1,experiment,rt,Female,Right,20,1,0
RT_3-1,Left,2,Left,699,-9,-7,None,Congruent,n,NA,1,experiment,rt,Female,Right,20,1,0
RT_3-1,Left,1,Left,599,-58,-50,None,Congruent,n,NA,1,experiment,rt,Female,Right,20,1,0
RT_3-1,Right,5,Right,599,0,-1,None,Congruent,y,5,1,experiment,rt,Female,Right,20,1,0
RT_3-1,Right,1,Right,497,-37,-40,Sound_1,None,y,1,1,experiment,rt,Female,Right,20,1,0
RT_3-1,Left,6,Left,864,8,-3,None,Congruent,y,6,1,experiment,rt,Female,Right,20,1,0
RT_3-1,Left,5,Left,699,32,37,None,None,n,NA,1,experiment,rt,Female,Right,20,1,0
RT_3-1,Right,2,Right,665,-9,-2,Sound_1,Incongruent,n,NA,1,experiment,rt,Female,Right,20,1,0
RT_3-1,Left,8,Left,564,-31,-34,Sound_1,Incongruent,y,8,1,experiment,rt,Female,Right,20,1,0
RT_3-1,Left,4,Left,601,-9,-4,None,Incongruent,y,4,1,experiment,rt,Female,Right,20,1,0
RT_3-1,Right,2,Right,499,34,36,Sound_1,Congruent,y,2,1,experiment,rt,Female,Right,20,1,0
RT_3-1,Right,3,Right,465,8,3,None,None,y,3,1,experiment,rt,Female,Right,20,1,0
RT_3-1,Right,5,None,1001,-36,-36,None,Incongruent,n,NA,1,experiment,rt,Female,Right,20,0,1
RT_3-1,Right,7,Right,631,-9,-7,Sound_1,Congruent,y,7,1,experiment,rt,Female,Right,20,1,0
RT_3-1,Left,3,Left,599,-56,-51,None,Incongruent,y,3,1,experiment,rt,Female,Right,20,1,0
RT_3-1,Left,2,Left,532,5,0,Sound_1,Congruent,y,2,1,experiment,rt,Female,Right,20,1,0
RT_3-1,Right,6,Right,666,32,31,Sound_1,Incongruent,n,NA,1,experiment,rt,Female,Right,20,1,0
RT_3-1,Right,3,Right,529,-50,-57,Sound_1,Congruent,y,3,1,experiment,rt,Female,Right,20,1,0
RT_3-1,Left,5,Left,597,-9,-3,Sound_1,Congruent,y,5,1,experiment,rt,Female,Right,20,1,0
RT_3-1,Left,1,Left,732,33,33,None,Incongruent,n,NA,1,experiment,rt,Female,Right,20,1,0
RT_3-1,Left,5,Left,766,-42,-42,None,Incongruent,n,NA,1,experiment,rt,Female,Right,20,1,0
RT_3-1,Right,7,Right,565,5,3,None,Incongruent,y,7,1,experiment,rt,Female,Right,20,1,0
RT_3-1,Left,4,Left,600,-38,-40,None,None,y,4,1,experiment,rt,Female,Right,20,1,0
RT_2-1,Right,4,Right,832,31,31,None,Incongruent,n,NA,1,practice,rt,Female,Right,20,1,0
RT_2-1,Right,5,Right,802,-32,-27,None,Incongruent,n,NA,1,practice,rt,Female,Right,20,1,0
RT_2-1,Left,8,Left,736,37,35,None,None,n,NA,1,practice,rt,Female,Right,20,1,0
RT_2-1,Left,7,Left,768,-2,0,Sound_1,Congruent,n,NA,1,practice,rt,Female,Right,20,1,0
RT_2-1,Right,2,Right,698,31,31,None,Incongruent,y,2,1,practice,rt,Female,Right,20,1,0
RT_2-1,Left,7,Left,731,-31,-30,None,Congruent,n,NA,1,practice,rt,Female,Right,20,1,0
RT_2-1,Right,5,Right,666,34,31,None,Congruent,n,NA,1,practice,rt,Female,Right,20,1,0
RT_2-1,Left,8,Left,601,3,9,Sound_1,Incongruent,n,NA,1,practice,rt,Female,Right,20,1,0
RT_2-1,Right,8,Right,632,53,57,None,Congruent,n,NA,1,practice,rt,Female,Right,20,1,0
RT_2-1,Right,7,Left,499,9,8,None,Congruent,n,NA,1,practice,rt,Female,Right,20,0,1
RT_2-1,Left,2,Left,674,-34,-10,Sound_1,None,n,NA,1,practice,rt,Female,Right,20,1,0
RT_2-1,Right,1,Right,632,8,2,None,Congruent,n,NA,1,practice,rt,Female,Right,20,1,0
RT_2-1,Left,5,Left,662,48,39,Sound_1,None,y,5,1,practice,rt,Female,Right,20,1,0
RT_2-1,Left,4,Left,665,-34,-27,Sound_1,Incongruent,n,NA,1,practice,rt,Female,Right,20,1,0
RT_2-1,Left,6,Left,598,42,37,Sound_1,Congruent,y,6,1,practice,rt,Female,Right,20,1,0
RT_2-1,Right,3,Right,533,2,2,None,None,y,3,1,practice,rt,Female,Right,20,1,0
RT_2-1,Right,3,Right,532,-41,-39,Sound_1,None,n,NA,1,practice,rt,Female,Right,20,1,0
RT_2-1,Left,4,Left,633,0,-3,None,None,n,NA,1,practice,rt,Female,Right,20,1,0
RT_2-1,Left,5,Left,532,38,35,Sound_1,Congruent,n,NA,1,practice,rt,Female,Right,20,1,0
RT_2-1,Right,1,Right,499,-32,-28,None,Congruent,y,1,1,practice,rt,Female,Right,20,1,0
RT_2-1,Left,2,Right,396,35,30,Sound_1,None,y,2,1,practice,rt,Female,Right,20,0,1
RT_2-1,Left,3,Left,766,-41,-38,None,None,n,NA,1,practice,rt,Female,Right,20,1,0
RT_2-1,Left,5,Left,767,44,39,None,None,n,NA,1,practice,rt,Female,Right,20,1,0
RT_2-1,Right,8,Right,498,2,2,Sound_1,None,y,8,1,practice,rt,Female,Right,20,1,0
RT_2-1,Right,5,Right,566,37,40,Sound_1,None,n,NA,1,experiment,rt,Female,Right,20,1,0
RT_2-1,Left,4,Left,966,-40,-39,None,Congruent,n,NA,1,experiment,rt,Female,Right,20,1,0
RT_2-1,Right,6,Right,566,-8,-8,None,None,y,6,1,experiment,rt,Female,Right,20,1,0
RT_2-1,Right,3,Right,430,48,39,Sound_1,None,y,3,1,experiment,rt,Female,Right,20,1,0
RT_2-1,Right,2,Right,465,1,2,Sound_1,None,y,2,1,experiment,rt,Female,Right,20,1,0
RT_2-1,Right,5,Right,666,-45,-40,None,Incongruent,n,NA,1,experiment,rt,Female,Right,20,1,0
RT_2-1,Left,1,Left,632,-11,-16,Sound_1,Congruent,n,NA,1,experiment,rt,Female,Right,20,1,0
RT_2-1,Left,7,Left,698,-43,-41,Sound_1,Incongruent,n,NA,1,experiment,rt,Female,Right,20,1,0
RT_2-1,Right,3,Right,465,41,34,None,Congruent,y,3,1,experiment,rt,Female,Right,20,1,0
RT_2-1,Right,4,Right,498,2,6,Sound_1,Congruent,y,4,1,experiment,rt,Female,Right,20,1,0
RT_2-1,Right,4,Right,534,-33,-31,Sound_1,Incongruent,n,NA,1,experiment,rt,Female,Right,20,1,0
RT_2-1,Left,7,Left,632,-5,-6,None,Incongruent,y,7,1,experiment,rt,Female,Right,20,1,0
RT_2-1,Right,8,Right,432,34,40,Sound_1,Congruent,y,8,1,experiment,rt,Female,Right,20,1,0
RT_2-1,Right,2,Right,431,-46,-42,None,None,y,2,1,experiment,rt,Female,Right,20,1,0
RT_2-1,Left,3,Left,699,47,50,None,Congruent,n,NA,1,experiment,rt,Female,Right,20,1,0
RT_2-1,Left,5,Left,899,-38,-61,None,Incongruent,n,NA,1,experiment,rt,Female,Right,20,1,0
RT_2-1,Left,2,Left,568,-5,6,Sound_1,Congruent,y,2,1,experiment,rt,Female,Right,20,1,0
RT_2-1,Left,3,Left,798,37,35,Sound_1,Incongruent,n,NA,1,experiment,rt,Female,Right,20,1,0
RT_2-1,Right,1,Right,499,0,-3,Sound_1,None,n,NA,1,experiment,rt,Female,Right,20,1,0
RT_2-1,Right,3,Right,799,57,57,None,None,n,NA,1,experiment,rt,Female,Right,20,1,0
RT_2-1,Right,2,Right,698,-31,-30,None,Incongruent,n,NA,1,experiment,rt,Female,Right,20,1,0
RT_2-1,Right,2,Right,600,1,-1,Sound_1,Incongruent,n,NA,1,experiment,rt,Female,Right,20,1,0
RT_2-1,Left,1,Left,433,-43,-48,None,None,y,1,1,experiment,rt,Female,Right,20,1,0
RT_2-1,Right,1,Right,566,42,45,Sound_1,Congruent,n,NA,1,experiment,rt,Female,Right,20,1,0
RT_2-1,Right,7,Right,564,-38,-39,Sound_1,None,y,7,1,experiment,rt,Female,Right,20,1,0
RT_2-1,Left,1,Left,566,54,37,Sound_1,None,n,NA,1,experiment,rt,Female,Right,20,1,0
RT_2-1,Right,1,Right,464,-3,-2,Sound_1,Congruent,y,1,1,experiment,rt,Female,Right,20,1,0
RT_2-1,Left,7,Left,732,45,41,None,Incongruent,n,NA,1,experiment,rt,Female,Right,20,1,0
RT_2-1,Right,3,Right,665,-1,1,None,Incongruent,n,NA,1,experiment,rt,Female,Right,20,1,0
RT_2-1,Left,6,Left,530,49,51,Sound_1,Congruent,y,6,1,experiment,rt,Female,Right,20,1,0
RT_2-1,Left,1,Left,566,5,2,None,Incongruent,y,1,1,experiment,rt,Female,Right,20,1,0
RT_2-1,Right,3,Right,467,-52,-45,None,Incongruent,y,3,1,experiment,rt,Female,Right,20,1,0
RT_2-1,Right,5,Right,597,-2,2,None,Congruent,y,5,1,experiment,rt,Female,Right,20,1,0
RT_2-1,Left,7,Left,532,38,57,None,Congruent,y,7,1,experiment,rt,Female,Right,20,1,0
RT_2-1,Right,4,Right,465,-41,-40,None,Congruent,y,4,1,experiment,rt,Female,Right,20,1,0
RT_2-1,Right,3,Right,367,-5,-3,None,None,y,3,1,experiment,rt,Female,Right,20,1,0
RT_2-1,Right,2,Right,498,42,43,Sound_1,None,n,NA,1,experiment,rt,Female,Right,20,1,0
RT_2-1,Left,1,Left,464,-39,-39,Sound_1,Congruent,y,1,1,experiment,rt,Female,Right,20,1,0
RT_2-1,Left,1,Left,699,42,26,None,Congruent,y,1,1,experiment,rt,Female,Right,20,1,0
RT_2-1,Left,7,Left,431,5,7,Sound_1,None,y,7,1,experiment,rt,Female,Right,20,1,0
RT_2-1,Right,5,Right,598,-41,-44,Sound_1,Congruent,n,NA,1,experiment,rt,Female,Right,20,1,0
RT_2-1,Left,3,Left,499,-2,-3,Sound_1,Incongruent,y,3,1,experiment,rt,Female,Right,20,1,0
RT_2-1,Right,7,Right,531,55,52,Sound_1,Incongruent,y,7,1,experiment,rt,Female,Right,20,1,0
RT_2-1,Right,6,Right,402,-36,-34,Sound_1,Congruent,y,6,1,experiment,rt,Female,Right,20,1,0
RT_2-1,Right,7,Right,498,0,0,Sound_1,Congruent,y,7,1,experiment,rt,Female,Right,20,1,0
RT_2-1,Left,8,Left,531,49,47,None,Incongruent,y,8,1,experiment,rt,Female,Right,20,1,0
RT_2-1,Right,5,Right,530,-32,-30,Sound_1,Incongruent,y,5,1,experiment,rt,Female,Right,20,1,0
RT_2-1,Right,7,Right,533,1,0,None,Incongruent,y,7,1,experiment,rt,Female,Right,20,1,0
RT_2-1,Left,6,Right,466,-34,-31,None,Incongruent,y,6,1,experiment,rt,Female,Right,20,0,1
RT_2-1,Right,4,Right,465,-2,-5,None,Incongruent,y,4,1,experiment,rt,Female,Right,20,1,0
RT_2-1,Right,8,Right,532,41,42,None,Incongruent,y,8,1,experiment,rt,Female,Right,20,1,0
RT_2-1,Right,4,Right,464,-36,-34,Sound_1,None,y,4,1,experiment,rt,Female,Right,20,1,0
RT_2-1,Right,8,Right,432,-1,-2,None,Congruent,y,8,1,experiment,rt,Female,Right,20,1,0
RT_2-1,Left,8,Left,432,-32,-31,None,Congruent,y,8,1,experiment,rt,Female,Right,20,1,0
RT_2-1,Left,4,Left,465,-2,-5,Sound_1,None,y,4,1,experiment,rt,Female,Right,20,1,0
RT_2-1,Right,2,Right,471,-36,-30,Sound_1,Incongruent,y,2,1,experiment,rt,Female,Right,20,1,0
RT_2-1,Left,5,Left,665,40,38,None,None,n,NA,1,experiment,rt,Female,Right,20,1,0
RT_2-1,Right,6,Right,531,0,0,Sound_1,Incongruent,y,6,1,experiment,rt,Female,Right,20,1,0
RT_2-1,Right,3,Right,632,38,27,Sound_1,Incongruent,n,NA,1,experiment,rt,Female,Right,20,1,0
RT_2-1,Left,3,Left,533,-45,-41,None,Incongruent,y,3,1,experiment,rt,Female,Right,20,1,0
RT_2-1,Right,5,Right,664,-2,-2,None,None,n,NA,1,experiment,rt,Female,Right,20,1,0
RT_2-1,Left,4,Left,798,-35,-26,None,None,y,4,1,experiment,rt,Female,Right,20,1,0
RT_2-1,Left,8,Left,498,-1,-4,Sound_1,Congruent,y,8,1,experiment,rt,Female,Right,20,1,0
RT_2-1,Left,3,Left,365,43,42,Sound_1,Congruent,y,3,1,experiment,rt,Female,Right,20,1,0
RT_2-1,Left,2,Left,532,-35,-34,Sound_1,None,n,NA,1,experiment,rt,Female,Right,20,1,0
RT_2-1,Right,2,Right,398,46,45,Sound_1,Congruent,y,2,1,experiment,rt,Female,Right,20,1,0
RT_2-1,Right,8,Right,633,-1,-1,Sound_1,Incongruent,n,NA,1,experiment,rt,Female,Right,20,1,0
RT_2-1,Left,6,Left,431,-35,-35,Sound_1,None,y,6,1,experiment,rt,Female,Right,20,1,0
RT_2-1,Left,5,Left,599,-4,-5,Sound_1,Incongruent,n,NA,1,experiment,rt,Female,Right,20,1,0
RT_2-1,Left,6,Left,599,37,33,None,Congruent,n,NA,1,experiment,rt,Female,Right,20,1,0
RT_2-1,Right,7,Right,632,-35,-32,Sound_1,Incongruent,n,NA,1,experiment,rt,Female,Right,20,1,0
RT_2-1,Left,2,Left,565,0,-1,Sound_1,Incongruent,n,NA,1,experiment,rt,Female,Right,20,1,0
